success,trial_type,trial_index,time_elapsed,internal_node_id,subject,date,time,line_1,line_2,line_3,rt,phase,stim_pos_y,stim_pos_x,first_stage,last_stage,show_money_val,p_o1,safe_val,o1_val,o2_val,o1_image,o2_image,safe_image,choice_image,key_press_num,choice,accept,outcome_reached,points_received,safe_val_base,safe_val_actual,p_trigger,trigger_val_base,trigger_val_actual,o1_trigger,safe_noise,trigger_noise,other_noise,matched_safe,gl_type,choice_number,trial_num,outcome_image,outcome_val,outcome_name,correct,key,practice_quiz_pct,practice_bonus_trial_points_avg,test_quiz_pct,test_bonus_trial_points_avg,stimulus,button_pressed
TRUE,fullscreen,0,63190,0.0-0.0,1,aug_19_2019,1716,,,,,,,,,,,,,,,,,,,,,,,,,,,,,,,,,,,,,,,,,,,,,,,
,evan-display-text,1,67400,0.0-1.0,1,aug_19_2019,1716,The next set of games will all have positive points.,Collecting more of these will make your bonus larger.,,4197.135,TRAIN INFO,,,,,,,,,,,,,,,,,,,,,,,,,,,,,,,,,,,,,,,,,,
,evan-run-trial,2,79655,0.0-2.0,1,aug_19_2019,1716,,,,4085.3,TEST,1,1,1,4,TRUE,0.2,20,90,0,Stimuli/Evan_Stimuli/Scissors.png,Stimuli/Evan_Stimuli/Girl.png,Stimuli/Evan_Stimuli/House.png,Stimuli/Evan_Stimuli/Zebra.png,49,1,1,2,0,20,20,0.2,90,90,TRUE,0,0,0,TRUE,gain,1,2,,,,,,,,,,,
,evan-run-trial,3,93149,0.0-3.0,1,aug_19_2019,1716,,,,5345.635,TEST,1,1,1,4,TRUE,0.6,20,0,50,Stimuli/Evan_Stimuli/Scissors.png,Stimuli/Evan_Stimuli/Girl.png,Stimuli/Evan_Stimuli/House.png,Stimuli/Evan_Stimuli/Pepper.png,50,2,0,3,20,20,20,0.4,50,50,FALSE,0,0,0,TRUE,gain,3,3,,,,,,,,,,,
,evan-run-trial,4,109161,0.0-4.0,1,aug_19_2019,1716,,,,7868.435,TEST,1,1,1,4,TRUE,0.8,60,70,0,Stimuli/Evan_Stimuli/Scissors.png,Stimuli/Evan_Stimuli/Girl.png,Stimuli/Evan_Stimuli/House.png,Stimuli/Evan_Stimuli/Butterfly.png,49,1,1,1,70,60,60,0.8,70,70,TRUE,0,0,0,TRUE,gain,4,4,,,,,,,,,,,
,evan-run-trial,5,125061,0.0-5.0,1,aug_19_2019,1716,,,,7742.145,TEST,1,1,1,4,TRUE,0.2,10,50,0,Stimuli/Evan_Stimuli/Scissors.png,Stimuli/Evan_Stimuli/Girl.png,Stimuli/Evan_Stimuli/House.png,Stimuli/Evan_Stimuli/Zebra.png,49,1,1,2,0,10,10,0.2,50,50,TRUE,0,0,0,TRUE,gain,1,5,,,,,,,,,,,
,evan-run-trial,6,138039,0.0-6.0,1,aug_19_2019,1716,,,,4822.035,TEST,1,1,1,4,TRUE,0.8,40,90,0,Stimuli/Evan_Stimuli/Scissors.png,Stimuli/Evan_Stimuli/Girl.png,Stimuli/Evan_Stimuli/House.png,Stimuli/Evan_Stimuli/Butterfly.png,49,1,1,1,90,40,40,0.8,90,90,TRUE,0,0,0,FALSE,gain,4,6,,,,,,,,,,,
,evan-run-trial,7,152133,0.0-7.0,1,aug_19_2019,1716,,,,5939.08,TEST,1,1,1,4,TRUE,0.6,20,0,90,Stimuli/Evan_Stimuli/Scissors.png,Stimuli/Evan_Stimuli/Girl.png,Stimuli/Evan_Stimuli/House.png,Stimuli/Evan_Stimuli/Pepper.png,50,2,0,3,20,20,20,0.4,90,90,FALSE,0,0,0,FALSE,gain,3,7,,,,,,,,,,,
,evan-run-trial,8,165128,0.0-8.0,1,aug_19_2019,1716,,,,4852.88,TEST,1,1,1,4,TRUE,0.8,40,70,0,Stimuli/Evan_Stimuli/Scissors.png,Stimuli/Evan_Stimuli/Girl.png,Stimuli/Evan_Stimuli/House.png,Stimuli/Evan_Stimuli/Butterfly.png,49,1,1,1,70,40,40,0.8,70,70,TRUE,0,0,0,FALSE,gain,4,8,,,,,,,,,,,
,evan-display-text,9,170130,0.0-9.0,1,aug_19_2019,1716,Great work!.,Let's take a 5 second break.,,,TRAIN INFO,,,,,,,,,,,,,,,,,,,,,,,,,,,,,,,,,,,,,,,,,,
,evan-run-trial,10,179823,0.0-10.0,1,aug_19_2019,1716,,,,1542.44,TEST,1,1,1,4,TRUE,0.4,20,0,70,Stimuli/Evan_Stimuli/Scissors.png,Stimuli/Evan_Stimuli/Girl.png,Stimuli/Evan_Stimuli/House.png,Stimuli/Evan_Stimuli/Hand.png,49,1,1,2,70,20,20,0.6,70,70,FALSE,0,0,0,FALSE,gain,2,10,,,,,,,,,,,
,evan-run-trial,11,192668,0.0-11.0,1,aug_19_2019,1716,,,,4699.555,TEST,1,1,1,4,TRUE,0.2,20,0,70,Stimuli/Evan_Stimuli/Scissors.png,Stimuli/Evan_Stimuli/Girl.png,Stimuli/Evan_Stimuli/House.png,Stimuli/Evan_Stimuli/Zebra.png,49,1,1,1,0,20,20,0.8,70,70,FALSE,0,0,0,FALSE,gain,1,11,,,,,,,,,,,
,evan-run-trial,12,198440,0.0-12.0,1,aug_19_2019,1716,,,,null,REW TEST 1,1,1,1,1,TRUE,0,40,90,0,Stimuli/Evan_Stimuli/Scissors.png,Stimuli/Evan_Stimuli/Girl.png,Stimuli/Evan_Stimuli/House.png,Stimuli/Evan_Stimuli/Hand.png,null,null,null,null,null,,,,,,,,,,,,,12,,,,,,,,,,,
,evan-reward-quiz,13,201691,0.0-13.0,1,aug_19_2019,1716,,,,2745.945,,,,,,,,,,,,,,,,,,,,,,,,,,,,,,,,,Stimuli/Evan_Stimuli/Scissors.png,90,SCISSORS,0,50,,,,,,
,evan-run-trial,14,216466,0.0-14.0,1,aug_19_2019,1716,,,,null,TEST,1,1,1,4,TRUE,0.6,40,50,0,Stimuli/Evan_Stimuli/Scissors.png,Stimuli/Evan_Stimuli/Girl.png,Stimuli/Evan_Stimuli/House.png,Stimuli/Evan_Stimuli/Pepper.png,null,SLOW,NA,null,null,40,40,0.6,50,50,TRUE,0,0,0,FALSE,gain,3,14,,,,,,,,,,,
,evan-run-trial,15,222242,0.0-15.0,1,aug_19_2019,1716,,,,null,REW TEST 1,1,1,1,1,TRUE,0,20,0,70,Stimuli/Evan_Stimuli/Scissors.png,Stimuli/Evan_Stimuli/Girl.png,Stimuli/Evan_Stimuli/House.png,Stimuli/Evan_Stimuli/Hand.png,null,null,null,null,null,,,,,,,,,,,,,15,,,,,,,,,,,
,evan-reward-quiz,16,227247,0.0-16.0,1,aug_19_2019,1716,,,,null,,,,,,,,,,,,,,,,,,,,,,,,,,,,,,,,,Stimuli/Evan_Stimuli/House.png,20,HOUSE,null,null,,,,,,
,evan-run-trial,17,237090,0.0-17.0,1,aug_19_2019,1716,,,,1689.115,TEST,1,1,1,4,TRUE,0.2,10,50,0,Stimuli/Evan_Stimuli/Scissors.png,Stimuli/Evan_Stimuli/Girl.png,Stimuli/Evan_Stimuli/House.png,Stimuli/Evan_Stimuli/Zebra.png,49,1,1,2,0,10,10,0.2,50,50,TRUE,0,0,0,TRUE,gain,1,17,,,,,,,,,,,
,evan-run-trial,18,247298,0.0-18.0,1,aug_19_2019,1716,,,,2056.81,TEST,1,1,1,4,TRUE,0.4,40,90,0,Stimuli/Evan_Stimuli/Scissors.png,Stimuli/Evan_Stimuli/Girl.png,Stimuli/Evan_Stimuli/House.png,Stimuli/Evan_Stimuli/Hand.png,49,1,1,2,0,40,40,0.4,90,90,TRUE,0,0,0,TRUE,gain,2,18,,,,,,,,,,,
,evan-run-trial,19,256774,0.0-19.0,1,aug_19_2019,1716,,,,1337.475,TEST,1,1,1,4,TRUE,0.6,40,0,50,Stimuli/Evan_Stimuli/Scissors.png,Stimuli/Evan_Stimuli/Girl.png,Stimuli/Evan_Stimuli/House.png,Stimuli/Evan_Stimuli/Pepper.png,50,2,0,3,40,40,40,0.4,50,50,FALSE,0,0,0,FALSE,gain,3,19,,,,,,,,,,,
,evan-run-trial,20,269034,0.0-20.0,1,aug_19_2019,1716,,,,4134.165,TEST,1,1,1,4,TRUE,0.2,20,70,0,Stimuli/Evan_Stimuli/Scissors.png,Stimuli/Evan_Stimuli/Girl.png,Stimuli/Evan_Stimuli/House.png,Stimuli/Evan_Stimuli/Zebra.png,50,2,0,3,20,20,20,0.2,70,70,TRUE,0,0,0,FALSE,gain,1,20,,,,,,,,,,,
,evan-display-text,21,274038,0.0-21.0,1,aug_19_2019,1716,The next set of games will all have negative points.,Collecting more of these will make your bonus smaller.,,5002.52,TRAIN INFO,,,,,,,,,,,,,,,,,,,,,,,,,,,,,,,,,,,,,,,,,,
,evan-run-trial,22,284314,0.0-22.0,1,aug_19_2019,1716,,,,2131.525,TEST,1,1,1,4,TRUE,0.8,-10,0,-70,Stimuli/Evan_Stimuli/Scissors.png,Stimuli/Evan_Stimuli/Girl.png,Stimuli/Evan_Stimuli/House.png,Stimuli/Evan_Stimuli/Butterfly.png,49,1,1,1,0,-10,-10,0.2,-70,-70,FALSE,0,0,0,TRUE,loss,4,22,,,,,,,,,,,
,evan-run-trial,23,295439,0.0-23.0,1,aug_19_2019,1716,,,,2976.66,TEST,1,1,1,4,TRUE,0.6,-40,0,-50,Stimuli/Evan_Stimuli/Scissors.png,Stimuli/Evan_Stimuli/Girl.png,Stimuli/Evan_Stimuli/House.png,Stimuli/Evan_Stimuli/Pepper.png,49,1,1,1,0,-40,-40,0.4,-50,-50,FALSE,0,0,0,FALSE,loss,3,23,,,,,,,,,,,
,evan-run-trial,24,309284,0.0-24.0,1,aug_19_2019,1716,,,,5691.025,TEST,1,1,1,4,TRUE,0.4,-40,0,-70,Stimuli/Evan_Stimuli/Scissors.png,Stimuli/Evan_Stimuli/Girl.png,Stimuli/Evan_Stimuli/House.png,Stimuli/Evan_Stimuli/Hand.png,49,1,1,1,0,-40,-40,0.6,-70,-70,FALSE,0,0,0,TRUE,loss,2,24,,,,,,,,,,,
,evan-run-trial,25,319876,0.0-25.0,1,aug_19_2019,1716,,,,2437.395,TEST,1,1,1,4,TRUE,0.4,-20,-90,0,Stimuli/Evan_Stimuli/Scissors.png,Stimuli/Evan_Stimuli/Girl.png,Stimuli/Evan_Stimuli/House.png,Stimuli/Evan_Stimuli/Hand.png,50,2,0,3,-20,-20,-20,0.4,-90,-90,TRUE,0,0,0,FALSE,loss,2,25,,,,,,,,,,,
,evan-run-trial,26,330953,0.0-26.0,1,aug_19_2019,1716,,,,2948.345,TEST,1,1,1,4,TRUE,0.6,-40,0,-70,Stimuli/Evan_Stimuli/Scissors.png,Stimuli/Evan_Stimuli/Girl.png,Stimuli/Evan_Stimuli/House.png,Stimuli/Evan_Stimuli/Pepper.png,50,2,0,3,-40,-40,-40,0.4,-70,-70,FALSE,0,0,0,FALSE,loss,3,26,,,,,,,,,,,
,evan-run-trial,27,342830,0.0-27.0,1,aug_19_2019,1716,,,,3730.475,TEST,1,1,1,4,TRUE,0.4,-20,0,-70,Stimuli/Evan_Stimuli/Scissors.png,Stimuli/Evan_Stimuli/Girl.png,Stimuli/Evan_Stimuli/House.png,Stimuli/Evan_Stimuli/Hand.png,49,1,1,2,-70,-20,-20,0.6,-70,-70,FALSE,0,0,0,FALSE,loss,2,27,,,,,,,,,,,
,evan-run-trial,28,352472,0.0-28.0,1,aug_19_2019,1716,,,,1486.06,TEST,1,1,1,4,TRUE,0.2,-40,0,-50,Stimuli/Evan_Stimuli/Scissors.png,Stimuli/Evan_Stimuli/Girl.png,Stimuli/Evan_Stimuli/House.png,Stimuli/Evan_Stimuli/Zebra.png,49,1,1,2,-50,-40,-40,0.8,-50,-50,FALSE,0,0,0,TRUE,loss,1,28,,,,,,,,,,,
,evan-display-text,29,357475,0.0-29.0,1,aug_19_2019,1716,Great work!.,Let's take a 5 second break.,,,TRAIN INFO,,,,,,,,,,,,,,,,,,,,,,,,,,,,,,,,,,,,,,,,,,
,evan-run-trial,30,368370,0.0-30.0,1,aug_19_2019,1716,,,,2742.895,TEST,1,1,1,4,TRUE,0.2,-40,0,-50,Stimuli/Evan_Stimuli/Scissors.png,Stimuli/Evan_Stimuli/Girl.png,Stimuli/Evan_Stimuli/House.png,Stimuli/Evan_Stimuli/Zebra.png,49,1,1,2,-50,-40,-40,0.8,-50,-50,FALSE,0,0,0,FALSE,loss,1,30,,,,,,,,,,,
,evan-run-trial,31,377694,0.0-31.0,1,aug_19_2019,1716,,,,1177.91,TEST,1,1,1,4,TRUE,0.2,-40,-50,0,Stimuli/Evan_Stimuli/Scissors.png,Stimuli/Evan_Stimuli/Girl.png,Stimuli/Evan_Stimuli/House.png,Stimuli/Evan_Stimuli/Zebra.png,49,1,1,1,-50,-40,-40,0.2,-50,-50,TRUE,0,0,0,FALSE,loss,1,31,,,,,,,,,,,
,evan-run-trial,32,383465,0.0-32.0,1,aug_19_2019,1716,,,,null,REW TEST 1,1,1,1,1,TRUE,0,40,0,70,Stimuli/Evan_Stimuli/Scissors.png,Stimuli/Evan_Stimuli/Girl.png,Stimuli/Evan_Stimuli/House.png,Stimuli/Evan_Stimuli/Hand.png,null,null,null,null,null,,,,,,,,,,,,,32,,,,,,,,,,,
,evan-reward-quiz,33,388468,0.0-33.0,1,aug_19_2019,1716,,,,null,,,,,,,,,,,,,,,,,,,,,,,,,,,,,,,,,Stimuli/Evan_Stimuli/House.png,40,HOUSE,null,null,,,,,,
,evan-run-trial,34,397744,0.0-34.0,1,aug_19_2019,1716,,,,1125.485,TEST,1,1,1,4,TRUE,0.6,-20,0,-50,Stimuli/Evan_Stimuli/Scissors.png,Stimuli/Evan_Stimuli/Girl.png,Stimuli/Evan_Stimuli/House.png,Stimuli/Evan_Stimuli/Pepper.png,49,1,1,1,0,-20,-20,0.4,-50,-50,FALSE,0,0,0,TRUE,loss,3,34,,,,,,,,,,,
,evan-run-trial,35,408720,0.0-35.0,1,aug_19_2019,1716,,,,2826.83,TEST,1,1,1,4,TRUE,0.8,-70,-90,0,Stimuli/Evan_Stimuli/Scissors.png,Stimuli/Evan_Stimuli/Girl.png,Stimuli/Evan_Stimuli/House.png,Stimuli/Evan_Stimuli/Butterfly.png,49,1,1,1,-90,-70,-70,0.8,-90,-90,TRUE,0,0,0,TRUE,loss,4,35,,,,,,,,,,,
,evan-run-trial,36,418312,0.0-36.0,1,aug_19_2019,1716,,,,1435.355,TEST,1,1,1,4,TRUE,0.8,-20,-90,0,Stimuli/Evan_Stimuli/Scissors.png,Stimuli/Evan_Stimuli/Girl.png,Stimuli/Evan_Stimuli/House.png,Stimuli/Evan_Stimuli/Butterfly.png,50,2,0,3,-20,-20,-20,0.8,-90,-90,TRUE,0,0,0,FALSE,loss,4,36,,,,,,,,,,,
,evan-run-trial,37,424083,0.0-37.0,1,aug_19_2019,1716,,,,null,REW TEST 1,1,1,1,1,TRUE,0,20,0,70,Stimuli/Evan_Stimuli/Scissors.png,Stimuli/Evan_Stimuli/Girl.png,Stimuli/Evan_Stimuli/House.png,Stimuli/Evan_Stimuli/Hand.png,null,null,null,null,null,,,,,,,,,,,,,37,,,,,,,,,,,
,evan-reward-quiz,38,426507,0.0-38.0,1,aug_19_2019,1716,,,,1921.175,,,,,,,,,,,,,,,,,,,,,,,,,,,,,,,,,Stimuli/Evan_Stimuli/Girl.png,70,GIRL,1,51,,,,,,
,evan-run-trial,39,436559,0.0-39.0,1,aug_19_2019,1716,,,,1909.26,TEST,1,1,1,4,TRUE,0.2,-40,0,-90,Stimuli/Evan_Stimuli/Scissors.png,Stimuli/Evan_Stimuli/Girl.png,Stimuli/Evan_Stimuli/House.png,Stimuli/Evan_Stimuli/Zebra.png,49,1,1,2,-90,-40,-40,0.8,-90,-90,FALSE,0,0,0,FALSE,loss,1,39,,,,,,,,,,,
,evan-run-trial,40,448671,0.0-40.0,1,aug_19_2019,1716,,,,3961.435,TEST,1,1,1,4,TRUE,0.6,-50,-90,0,Stimuli/Evan_Stimuli/Scissors.png,Stimuli/Evan_Stimuli/Girl.png,Stimuli/Evan_Stimuli/House.png,Stimuli/Evan_Stimuli/Pepper.png,49,1,1,1,-90,-50,-50,0.6,-90,-90,TRUE,0,0,0,TRUE,loss,3,40,,,,,,,,,,,
,evan-display-text,41,451158,0.0-41.0,1,aug_19_2019,1716,The next set of games will all have positive points.,Collecting more of these will make your bonus larger.,,2485.875,TRAIN INFO,,,,,,,,,,,,,,,,,,,,,,,,,,,,,,,,,,,,,,,,,,
,evan-run-trial,42,461799,0.0-42.0,1,aug_19_2019,1716,,,,2503.75,TEST,1,1,1,4,TRUE,0.8,40,50,0,Stimuli/Evan_Stimuli/Scissors.png,Stimuli/Evan_Stimuli/Girl.png,Stimuli/Evan_Stimuli/House.png,Stimuli/Evan_Stimuli/Butterfly.png,49,1,1,1,50,40,40,0.8,50,50,TRUE,0,0,0,TRUE,gain,4,42,,,,,,,,,,,
,evan-run-trial,43,473442,0.0-43.0,1,aug_19_2019,1716,,,,3492.525,TEST,1,1,1,4,TRUE,0.8,75,90,0,Stimuli/Evan_Stimuli/Scissors.png,Stimuli/Evan_Stimuli/Girl.png,Stimuli/Evan_Stimuli/House.png,Stimuli/Evan_Stimuli/Butterfly.png,49,1,1,1,90,75,75,0.8,90,90,TRUE,0,0,0,TRUE,gain,4,43,,,,,,,,,,,
,evan-run-trial,44,484000,0.0-44.0,1,aug_19_2019,1716,,,,2410.365,TEST,1,1,1,4,TRUE,0.6,55,90,0,Stimuli/Evan_Stimuli/Scissors.png,Stimuli/Evan_Stimuli/Girl.png,Stimuli/Evan_Stimuli/House.png,Stimuli/Evan_Stimuli/Pepper.png,50,2,0,3,55,55,55,0.6,90,90,TRUE,0,0,0,TRUE,gain,3,44,,,,,,,,,,,
,evan-run-trial,45,495677,0.0-45.0,1,aug_19_2019,1716,,,,3546.735,TEST,1,1,1,4,TRUE,0.8,20,0,70,Stimuli/Evan_Stimuli/Scissors.png,Stimuli/Evan_Stimuli/Girl.png,Stimuli/Evan_Stimuli/House.png,Stimuli/Evan_Stimuli/Butterfly.png,50,2,0,3,20,20,20,0.2,70,70,FALSE,0,0,0,FALSE,gain,4,45,,,,,,,,,,,
,evan-run-trial,46,505452,0.0-46.0,1,aug_19_2019,1716,,,,1645.465,TEST,1,1,1,4,TRUE,0.2,40,50,0,Stimuli/Evan_Stimuli/Scissors.png,Stimuli/Evan_Stimuli/Girl.png,Stimuli/Evan_Stimuli/House.png,Stimuli/Evan_Stimuli/Zebra.png,50,2,0,3,40,40,40,0.2,50,50,TRUE,0,0,0,FALSE,gain,1,46,,,,,,,,,,,
,evan-run-trial,47,517795,0.0-47.0,1,aug_19_2019,1716,,,,4191.295,TEST,1,1,1,4,TRUE,0.2,40,0,70,Stimuli/Evan_Stimuli/Scissors.png,Stimuli/Evan_Stimuli/Girl.png,Stimuli/Evan_Stimuli/House.png,Stimuli/Evan_Stimuli/Zebra.png,50,2,0,3,40,40,40,0.8,70,70,FALSE,0,0,0,FALSE,gain,1,47,,,,,,,,,,,
,evan-run-trial,48,528639,0.0-48.0,1,aug_19_2019,1716,,,,2695.595,TEST,1,1,1,4,TRUE,0.2,40,70,0,Stimuli/Evan_Stimuli/Scissors.png,Stimuli/Evan_Stimuli/Girl.png,Stimuli/Evan_Stimuli/House.png,Stimuli/Evan_Stimuli/Zebra.png,49,1,1,2,0,40,40,0.2,70,70,TRUE,0,0,0,FALSE,gain,1,48,,,,,,,,,,,
,evan-display-text,49,533643,0.0-49.0,1,aug_19_2019,1716,Great work!.,Let's take a 5 second break.,,,TRAIN INFO,,,,,,,,,,,,,,,,,,,,,,,,,,,,,,,,,,,,,,,,,,
,evan-run-trial,50,544435,0.0-50.0,1,aug_19_2019,1716,,,,2655.555,TEST,1,1,1,4,TRUE,0.4,20,50,0,Stimuli/Evan_Stimuli/Scissors.png,Stimuli/Evan_Stimuli/Girl.png,Stimuli/Evan_Stimuli/House.png,Stimuli/Evan_Stimuli/Hand.png,50,2,0,3,20,20,20,0.4,50,50,TRUE,0,0,0,FALSE,gain,2,50,,,,,,,,,,,
,evan-run-trial,51,550207,0.0-51.0,1,aug_19_2019,1716,,,,null,REW TEST 1,1,1,1,1,TRUE,0,40,70,0,Stimuli/Evan_Stimuli/Scissors.png,Stimuli/Evan_Stimuli/Girl.png,Stimuli/Evan_Stimuli/House.png,Stimuli/Evan_Stimuli/Hand.png,null,null,null,null,null,,,,,,,,,,,,,51,,,,,,,,,,,
,evan-reward-quiz,52,553403,0.0-52.0,1,aug_19_2019,1716,,,,2692.78,,,,,,,,,,,,,,,,,,,,,,,,,,,,,,,,,Stimuli/Evan_Stimuli/Scissors.png,70,SCISSORS,0,52,,,,,,
,evan-run-trial,53,566119,0.0-53.0,1,aug_19_2019,1716,,,,4553.35,TEST,1,1,1,4,TRUE,0.8,20,50,0,Stimuli/Evan_Stimuli/Scissors.png,Stimuli/Evan_Stimuli/Girl.png,Stimuli/Evan_Stimuli/House.png,Stimuli/Evan_Stimuli/Butterfly.png,49,1,1,1,50,20,20,0.8,50,50,TRUE,0,0,0,FALSE,gain,4,53,,,,,,,,,,,
,evan-run-trial,54,577680,0.0-54.0,1,aug_19_2019,1716,,,,3409.125,TEST,1,1,1,4,TRUE,0.6,40,0,90,Stimuli/Evan_Stimuli/Scissors.png,Stimuli/Evan_Stimuli/Girl.png,Stimuli/Evan_Stimuli/House.png,Stimuli/Evan_Stimuli/Pepper.png,49,1,1,1,0,40,40,0.4,90,90,FALSE,0,0,0,TRUE,gain,3,54,,,,,,,,,,,
,evan-run-trial,55,588956,0.0-55.0,1,aug_19_2019,1716,,,,3129.475,TEST,1,1,1,4,TRUE,0.2,40,90,0,Stimuli/Evan_Stimuli/Scissors.png,Stimuli/Evan_Stimuli/Girl.png,Stimuli/Evan_Stimuli/House.png,Stimuli/Evan_Stimuli/Zebra.png,50,2,0,3,40,40,40,0.2,90,90,TRUE,0,0,0,FALSE,gain,1,55,,,,,,,,,,,
,evan-run-trial,56,600199,0.0-56.0,1,aug_19_2019,1716,,,,3101.55,TEST,1,1,1,4,TRUE,0.6,40,70,0,Stimuli/Evan_Stimuli/Scissors.png,Stimuli/Evan_Stimuli/Girl.png,Stimuli/Evan_Stimuli/House.png,Stimuli/Evan_Stimuli/Pepper.png,49,1,1,2,0,40,40,0.6,70,70,TRUE,0,0,0,FALSE,gain,3,56,,,,,,,,,,,
,evan-display-text,57,622870,0.0-57.0,1,aug_19_2019,1716,Great job! You're a quarter of the way through this part of the task.,,,22670.27,TRAIN INFO,,,,,,,,,,,,,,,,,,,,,,,,,,,,,,,,,,,,,,,,,,
,evan-run-trial,58,634961,0.0-58.0,1,aug_19_2019,1716,,,,3943.325,TEST,1,1,1,4,TRUE,0.2,75,0,90,Stimuli/Evan_Stimuli/Scissors.png,Stimuli/Evan_Stimuli/Girl.png,Stimuli/Evan_Stimuli/House.png,Stimuli/Evan_Stimuli/Zebra.png,50,2,0,3,75,75,75,0.8,90,90,FALSE,0,0,0,TRUE,gain,1,57,,,,,,,,,,,
,evan-run-trial,59,647457,0.0-59.0,1,aug_19_2019,1716,,,,4344.945,TEST,1,1,1,4,TRUE,0.8,15,0,70,Stimuli/Evan_Stimuli/Scissors.png,Stimuli/Evan_Stimuli/Girl.png,Stimuli/Evan_Stimuli/House.png,Stimuli/Evan_Stimuli/Butterfly.png,50,2,0,3,15,15,15,0.2,70,70,FALSE,0,0,0,TRUE,gain,4,58,,,,,,,,,,,
,evan-display-text,60,652310,0.0-60.0,1,aug_19_2019,1716,The next set of games will all have negative points.,Collecting more of these will make your bonus smaller.,,4852.125,TRAIN INFO,,,,,,,,,,,,,,,,,,,,,,,,,,,,,,,,,,,,,,,,,,
,evan-run-trial,61,663586,0.0-61.0,1,aug_19_2019,1716,,,,3125.41,TEST,1,1,1,4,TRUE,0.2,-20,-50,0,Stimuli/Evan_Stimuli/Scissors.png,Stimuli/Evan_Stimuli/Girl.png,Stimuli/Evan_Stimuli/House.png,Stimuli/Evan_Stimuli/Zebra.png,49,1,1,1,-50,-20,-20,0.2,-50,-50,TRUE,0,0,0,FALSE,loss,1,60,,,,,,,,,,,
,evan-run-trial,62,674462,0.0-62.0,1,aug_19_2019,1716,,,,2726.975,TEST,1,1,1,4,TRUE,0.6,-40,-90,0,Stimuli/Evan_Stimuli/Scissors.png,Stimuli/Evan_Stimuli/Girl.png,Stimuli/Evan_Stimuli/House.png,Stimuli/Evan_Stimuli/Pepper.png,50,2,0,3,-40,-40,-40,0.6,-90,-90,TRUE,0,0,0,FALSE,loss,3,61,,,,,,,,,,,
,evan-run-trial,63,684522,0.0-63.0,1,aug_19_2019,1716,,,,1916.17,TEST,1,1,1,4,TRUE,0.6,-40,-50,0,Stimuli/Evan_Stimuli/Scissors.png,Stimuli/Evan_Stimuli/Girl.png,Stimuli/Evan_Stimuli/House.png,Stimuli/Evan_Stimuli/Pepper.png,49,1,1,1,-50,-40,-40,0.6,-50,-50,TRUE,0,0,0,FALSE,loss,3,62,,,,,,,,,,,
,evan-run-trial,64,696147,0.0-64.0,1,aug_19_2019,1716,,,,3473.78,TEST,1,1,1,4,TRUE,0.4,-20,0,-90,Stimuli/Evan_Stimuli/Scissors.png,Stimuli/Evan_Stimuli/Girl.png,Stimuli/Evan_Stimuli/House.png,Stimuli/Evan_Stimuli/Hand.png,50,2,0,3,-20,-20,-20,0.6,-90,-90,FALSE,0,0,0,FALSE,loss,2,63,,,,,,,,,,,
,evan-run-trial,65,701919,0.0-65.0,1,aug_19_2019,1716,,,,null,REW TEST 1,1,1,1,1,TRUE,0,20,0,50,Stimuli/Evan_Stimuli/Scissors.png,Stimuli/Evan_Stimuli/Girl.png,Stimuli/Evan_Stimuli/House.png,Stimuli/Evan_Stimuli/Hand.png,null,null,null,null,null,,,,,,,,,,,,,64,,,,,,,,,,,
,evan-reward-quiz,66,704107,0.0-66.0,1,aug_19_2019,1716,,,,1684.54,,,,,,,,,,,,,,,,,,,,,,,,,,,,,,,,,Stimuli/Evan_Stimuli/Girl.png,50,GIRL,1,49,,,,,,
,evan-run-trial,67,713662,0.0-67.0,1,aug_19_2019,1716,,,,1425.88,TEST,1,1,1,4,TRUE,0.6,-20,-70,0,Stimuli/Evan_Stimuli/Scissors.png,Stimuli/Evan_Stimuli/Girl.png,Stimuli/Evan_Stimuli/House.png,Stimuli/Evan_Stimuli/Pepper.png,50,2,0,3,-20,-20,-20,0.6,-70,-70,TRUE,0,0,0,FALSE,loss,3,66,,,,,,,,,,,
,evan-run-trial,68,724556,0.0-68.0,1,aug_19_2019,1716,,,,2749.285,TEST,1,1,1,4,TRUE,0.4,-40,-90,0,Stimuli/Evan_Stimuli/Scissors.png,Stimuli/Evan_Stimuli/Girl.png,Stimuli/Evan_Stimuli/House.png,Stimuli/Evan_Stimuli/Hand.png,50,2,0,3,-40,-40,-40,0.4,-90,-90,TRUE,0,0,0,FALSE,loss,2,67,,,,,,,,,,,
,evan-run-trial,69,736531,0.0-69.0,1,aug_19_2019,1716,,,,3823.365,TEST,1,1,1,4,TRUE,0.2,-40,0,-50,Stimuli/Evan_Stimuli/Scissors.png,Stimuli/Evan_Stimuli/Girl.png,Stimuli/Evan_Stimuli/House.png,Stimuli/Evan_Stimuli/Zebra.png,49,1,1,2,-50,-40,-40,0.8,-50,-50,FALSE,0,0,0,TRUE,loss,1,68,,,,,,,,,,,
,evan-display-text,70,741534,0.0-70.0,1,aug_19_2019,1716,Great work!.,Let's take a 5 second break.,,,TRAIN INFO,,,,,,,,,,,,,,,,,,,,,,,,,,,,,,,,,,,,,,,,,,
,evan-run-trial,71,752311,0.0-71.0,1,aug_19_2019,1716,,,,2618.885,TEST,1,1,1,4,TRUE,0.6,-40,-70,0,Stimuli/Evan_Stimuli/Scissors.png,Stimuli/Evan_Stimuli/Girl.png,Stimuli/Evan_Stimuli/House.png,Stimuli/Evan_Stimuli/Pepper.png,50,2,0,3,-40,-40,-40,0.6,-70,-70,TRUE,0,0,0,TRUE,loss,3,70,,,,,,,,,,,
,evan-run-trial,72,764056,0.0-72.0,1,aug_19_2019,1716,,,,3587.56,TEST,1,1,1,4,TRUE,0.8,-20,0,-90,Stimuli/Evan_Stimuli/Scissors.png,Stimuli/Evan_Stimuli/Girl.png,Stimuli/Evan_Stimuli/House.png,Stimuli/Evan_Stimuli/Butterfly.png,50,2,0,3,-20,-20,-20,0.2,-90,-90,FALSE,0,0,0,FALSE,loss,4,71,,,,,,,,,,,
,evan-run-trial,73,769827,0.0-73.0,1,aug_19_2019,1716,,,,null,REW TEST 1,1,1,1,1,TRUE,0,40,70,0,Stimuli/Evan_Stimuli/Scissors.png,Stimuli/Evan_Stimuli/Girl.png,Stimuli/Evan_Stimuli/House.png,Stimuli/Evan_Stimuli/Hand.png,null,null,null,null,null,,,,,,,,,,,,,72,,,,,,,,,,,
,evan-reward-quiz,74,771866,0.0-74.0,1,aug_19_2019,1716,,,,1536.21,,,,,,,,,,,,,,,,,,,,,,,,,,,,,,,,,Stimuli/Evan_Stimuli/Scissors.png,70,SCISSORS,1,51,,,,,,
,evan-run-trial,75,783104,0.0-75.0,1,aug_19_2019,1716,,,,3091.545,TEST,1,1,1,4,TRUE,0.8,-40,-50,0,Stimuli/Evan_Stimuli/Scissors.png,Stimuli/Evan_Stimuli/Girl.png,Stimuli/Evan_Stimuli/House.png,Stimuli/Evan_Stimuli/Butterfly.png,49,1,1,1,-50,-40,-40,0.8,-50,-50,TRUE,0,0,0,FALSE,loss,4,74,,,,,,,,,,,
,evan-run-trial,76,793781,0.0-76.0,1,aug_19_2019,1716,,,,2521.045,TEST,1,1,1,4,TRUE,0.8,-40,0,-70,Stimuli/Evan_Stimuli/Scissors.png,Stimuli/Evan_Stimuli/Girl.png,Stimuli/Evan_Stimuli/House.png,Stimuli/Evan_Stimuli/Butterfly.png,49,1,1,1,0,-40,-40,0.2,-70,-70,FALSE,0,0,0,FALSE,loss,4,75,,,,,,,,,,,
,evan-run-trial,77,807142,0.0-77.0,1,aug_19_2019,1716,,,,5204.795,TEST,1,1,1,4,TRUE,0.4,-20,-70,0,Stimuli/Evan_Stimuli/Scissors.png,Stimuli/Evan_Stimuli/Girl.png,Stimuli/Evan_Stimuli/House.png,Stimuli/Evan_Stimuli/Hand.png,50,2,0,3,-20,-20,-20,0.4,-70,-70,TRUE,0,0,0,FALSE,loss,2,76,,,,,,,,,,,
,evan-run-trial,78,818118,0.0-78.0,1,aug_19_2019,1716,,,,2819.92,TEST,1,1,1,4,TRUE,0.2,-10,-70,0,Stimuli/Evan_Stimuli/Scissors.png,Stimuli/Evan_Stimuli/Girl.png,Stimuli/Evan_Stimuli/House.png,Stimuli/Evan_Stimuli/Zebra.png,49,1,1,2,0,-10,-10,0.2,-70,-70,TRUE,0,0,0,TRUE,loss,1,77,,,,,,,,,,,
,evan-run-trial,79,829979,0.0-79.0,1,aug_19_2019,1716,,,,3716.495,TEST,1,1,1,4,TRUE,0.4,-40,-70,0,Stimuli/Evan_Stimuli/Scissors.png,Stimuli/Evan_Stimuli/Girl.png,Stimuli/Evan_Stimuli/House.png,Stimuli/Evan_Stimuli/Hand.png,50,2,0,3,-40,-40,-40,0.4,-70,-70,TRUE,0,0,0,FALSE,loss,2,78,,,,,,,,,,,
,evan-display-text,80,834774,0.0-80.0,1,aug_19_2019,1716,The next set of games will all have positive points.,Collecting more of these will make your bonus larger.,,4794.02,TRAIN INFO,,,,,,,,,,,,,,,,,,,,,,,,,,,,,,,,,,,,,,,,,,
,evan-run-trial,81,845692,0.0-81.0,1,aug_19_2019,1716,,,,2781.23,TEST,1,1,1,4,TRUE,0.6,30,0,70,Stimuli/Evan_Stimuli/Scissors.png,Stimuli/Evan_Stimuli/Girl.png,Stimuli/Evan_Stimuli/House.png,Stimuli/Evan_Stimuli/Pepper.png,49,1,1,1,0,30,30,0.4,70,70,FALSE,0,0,0,TRUE,gain,3,80,,,,,,,,,,,
,evan-run-trial,82,856400,0.0-82.0,1,aug_19_2019,1716,,,,2576.37,TEST,1,1,1,4,TRUE,0.6,45,70,0,Stimuli/Evan_Stimuli/Scissors.png,Stimuli/Evan_Stimuli/Girl.png,Stimuli/Evan_Stimuli/House.png,Stimuli/Evan_Stimuli/Pepper.png,49,1,1,1,70,45,45,0.6,70,70,TRUE,0,0,0,TRUE,gain,3,81,,,,,,,,,,,
,evan-run-trial,83,866659,0.0-83.0,1,aug_19_2019,1716,,,,2107.305,TEST,1,1,1,4,TRUE,0.8,20,0,50,Stimuli/Evan_Stimuli/Scissors.png,Stimuli/Evan_Stimuli/Girl.png,Stimuli/Evan_Stimuli/House.png,Stimuli/Evan_Stimuli/Butterfly.png,50,2,0,3,20,20,20,0.2,50,50,FALSE,0,0,0,FALSE,gain,4,82,,,,,,,,,,,
,evan-run-trial,84,878052,0.0-84.0,1,aug_19_2019,1716,,,,3238.765,TEST,1,1,1,4,TRUE,0.6,40,0,90,Stimuli/Evan_Stimuli/Scissors.png,Stimuli/Evan_Stimuli/Girl.png,Stimuli/Evan_Stimuli/House.png,Stimuli/Evan_Stimuli/Pepper.png,50,2,0,3,40,40,40,0.4,90,90,FALSE,0,0,0,FALSE,gain,3,83,,,,,,,,,,,
,evan-run-trial,85,888895,0.0-85.0,1,aug_19_2019,1716,,,,2710.365,TEST,1,1,1,4,TRUE,0.4,40,0,70,Stimuli/Evan_Stimuli/Scissors.png,Stimuli/Evan_Stimuli/Girl.png,Stimuli/Evan_Stimuli/House.png,Stimuli/Evan_Stimuli/Hand.png,50,2,0,3,40,40,40,0.6,70,70,FALSE,0,0,0,FALSE,gain,2,84,,,,,,,,,,,
,evan-run-trial,86,902357,0.0-86.0,1,aug_19_2019,1716,,,,5308.62,TEST,1,1,1,4,TRUE,0.4,45,0,70,Stimuli/Evan_Stimuli/Scissors.png,Stimuli/Evan_Stimuli/Girl.png,Stimuli/Evan_Stimuli/House.png,Stimuli/Evan_Stimuli/Hand.png,50,2,0,3,45,45,45,0.6,70,70,FALSE,0,0,0,TRUE,gain,2,85,,,,,,,,,,,
,evan-run-trial,87,913716,0.0-87.0,1,aug_19_2019,1716,,,,3203.29,TEST,1,1,1,4,TRUE,0.6,55,90,0,Stimuli/Evan_Stimuli/Scissors.png,Stimuli/Evan_Stimuli/Girl.png,Stimuli/Evan_Stimuli/House.png,Stimuli/Evan_Stimuli/Pepper.png,50,2,0,3,55,55,55,0.6,90,90,TRUE,0,0,0,TRUE,gain,3,86,,,,,,,,,,,
,evan-display-text,88,918718,0.0-88.0,1,aug_19_2019,1716,Great work!.,Let's take a 5 second break.,,,TRAIN INFO,,,,,,,,,,,,,,,,,,,,,,,,,,,,,,,,,,,,,,,,,,
,evan-run-trial,89,929146,0.0-89.0,1,aug_19_2019,1716,,,,2299.565,TEST,1,1,1,4,TRUE,0.6,20,70,0,Stimuli/Evan_Stimuli/Scissors.png,Stimuli/Evan_Stimuli/Girl.png,Stimuli/Evan_Stimuli/House.png,Stimuli/Evan_Stimuli/Pepper.png,49,1,1,1,70,20,20,0.6,70,70,TRUE,0,0,0,FALSE,gain,3,88,,,,,,,,,,,
,evan-run-trial,90,938736,0.0-90.0,1,aug_19_2019,1716,,,,1439.97,TEST,1,1,1,4,TRUE,0.2,20,90,0,Stimuli/Evan_Stimuli/Scissors.png,Stimuli/Evan_Stimuli/Girl.png,Stimuli/Evan_Stimuli/House.png,Stimuli/Evan_Stimuli/Zebra.png,49,1,1,1,90,20,20,0.2,90,90,TRUE,0,0,0,FALSE,gain,1,89,,,,,,,,,,,
,evan-run-trial,91,950096,0.0-91.0,1,aug_19_2019,1716,,,,3210.085,TEST,1,1,1,4,TRUE,0.2,75,0,90,Stimuli/Evan_Stimuli/Scissors.png,Stimuli/Evan_Stimuli/Girl.png,Stimuli/Evan_Stimuli/House.png,Stimuli/Evan_Stimuli/Zebra.png,50,2,0,3,75,75,75,0.8,90,90,FALSE,0,0,0,TRUE,gain,1,90,,,,,,,,,,,
,evan-run-trial,92,959621,0.0-92.0,1,aug_19_2019,1716,,,,1370.125,TEST,1,1,1,4,TRUE,0.8,20,90,0,Stimuli/Evan_Stimuli/Scissors.png,Stimuli/Evan_Stimuli/Girl.png,Stimuli/Evan_Stimuli/House.png,Stimuli/Evan_Stimuli/Butterfly.png,49,1,1,1,90,20,20,0.8,90,90,TRUE,0,0,0,FALSE,gain,4,91,,,,,,,,,,,
,evan-run-trial,93,973432,0.0-93.0,1,aug_19_2019,1716,,,,5669.695,TEST,1,1,1,4,TRUE,0.4,40,70,0,Stimuli/Evan_Stimuli/Scissors.png,Stimuli/Evan_Stimuli/Girl.png,Stimuli/Evan_Stimuli/House.png,Stimuli/Evan_Stimuli/Hand.png,50,2,0,3,40,40,40,0.4,70,70,TRUE,0,0,0,FALSE,gain,2,92,,,,,,,,,,,
,evan-run-trial,94,984877,0.0-94.0,1,aug_19_2019,1716,,,,3312.305,TEST,1,1,1,4,TRUE,0.6,40,0,90,Stimuli/Evan_Stimuli/Scissors.png,Stimuli/Evan_Stimuli/Girl.png,Stimuli/Evan_Stimuli/House.png,Stimuli/Evan_Stimuli/Pepper.png,50,2,0,3,40,40,40,0.4,90,90,FALSE,0,0,0,TRUE,gain,3,93,,,,,,,,,,,
,evan-run-trial,95,990647,0.0-95.0,1,aug_19_2019,1716,,,,null,REW TEST 1,1,1,1,1,TRUE,0,40,70,0,Stimuli/Evan_Stimuli/Scissors.png,Stimuli/Evan_Stimuli/Girl.png,Stimuli/Evan_Stimuli/House.png,Stimuli/Evan_Stimuli/Hand.png,null,null,null,null,null,,,,,,,,,,,,,94,,,,,,,,,,,
,evan-reward-quiz,96,992954,0.0-96.0,1,aug_19_2019,1716,,,,1804.41,,,,,,,,,,,,,,,,,,,,,,,,,,,,,,,,,Stimuli/Evan_Stimuli/Girl.png,0,GIRL,1,49,,,,,,
,evan-run-trial,97,1003226,0.0-97.0,1,aug_19_2019,1716,,,,2132.975,TEST,1,1,1,4,TRUE,0.6,30,50,0,Stimuli/Evan_Stimuli/Scissors.png,Stimuli/Evan_Stimuli/Girl.png,Stimuli/Evan_Stimuli/House.png,Stimuli/Evan_Stimuli/Pepper.png,50,2,0,3,30,30,30,0.6,50,50,TRUE,0,0,0,TRUE,gain,3,96,,,,,,,,,,,
,evan-display-text,98,1005174,0.0-98.0,1,aug_19_2019,1716,The next set of games will all have negative points.,Collecting more of these will make your bonus smaller.,,1946.92,TRAIN INFO,,,,,,,,,,,,,,,,,,,,,,,,,,,,,,,,,,,,,,,,,,
,evan-run-trial,99,1015186,0.0-99.0,1,aug_19_2019,1716,,,,1857.91,TEST,1,1,1,4,TRUE,0.4,-40,0,-50,Stimuli/Evan_Stimuli/Scissors.png,Stimuli/Evan_Stimuli/Girl.png,Stimuli/Evan_Stimuli/House.png,Stimuli/Evan_Stimuli/Hand.png,49,1,1,2,-50,-40,-40,0.6,-50,-50,FALSE,0,0,0,FALSE,loss,2,98,,,,,,,,,,,
,evan-run-trial,100,1026378,0.0-100.0,1,aug_19_2019,1716,,,,3046.7,TEST,1,1,1,4,TRUE,0.2,-70,0,-90,Stimuli/Evan_Stimuli/Scissors.png,Stimuli/Evan_Stimuli/Girl.png,Stimuli/Evan_Stimuli/House.png,Stimuli/Evan_Stimuli/Zebra.png,49,1,1,2,-90,-70,-70,0.8,-90,-90,FALSE,0,0,0,TRUE,loss,1,99,,,,,,,,,,,
,evan-run-trial,101,1036937,0.0-101.0,1,aug_19_2019,1716,,,,2414.12,TEST,1,1,1,4,TRUE,0.2,-40,0,-70,Stimuli/Evan_Stimuli/Scissors.png,Stimuli/Evan_Stimuli/Girl.png,Stimuli/Evan_Stimuli/House.png,Stimuli/Evan_Stimuli/Zebra.png,50,2,0,3,-40,-40,-40,0.8,-70,-70,FALSE,0,0,0,FALSE,loss,1,100,,,,,,,,,,,
,evan-run-trial,102,1049931,0.0-102.0,1,aug_19_2019,1716,,,,4849.925,TEST,1,1,1,4,TRUE,0.6,-50,-90,0,Stimuli/Evan_Stimuli/Scissors.png,Stimuli/Evan_Stimuli/Girl.png,Stimuli/Evan_Stimuli/House.png,Stimuli/Evan_Stimuli/Pepper.png,50,2,0,3,-50,-50,-50,0.6,-90,-90,TRUE,0,0,0,TRUE,loss,3,101,,,,,,,,,,,
,evan-run-trial,103,1062527,0.0-103.0,1,aug_19_2019,1716,,,,4462.505,TEST,1,1,1,4,TRUE,0.6,-40,-70,0,Stimuli/Evan_Stimuli/Scissors.png,Stimuli/Evan_Stimuli/Girl.png,Stimuli/Evan_Stimuli/House.png,Stimuli/Evan_Stimuli/Pepper.png,49,1,1,2,0,-40,-40,0.6,-70,-70,TRUE,0,0,0,FALSE,loss,3,102,,,,,,,,,,,
,evan-run-trial,104,1071650,0.0-104.0,1,aug_19_2019,1716,,,,971.235,TEST,1,1,1,4,TRUE,0.6,-20,-90,0,Stimuli/Evan_Stimuli/Scissors.png,Stimuli/Evan_Stimuli/Girl.png,Stimuli/Evan_Stimuli/House.png,Stimuli/Evan_Stimuli/Pepper.png,50,2,0,3,-20,-20,-20,0.6,-90,-90,TRUE,0,0,0,FALSE,loss,3,103,,,,,,,,,,,
,evan-run-trial,105,1085846,0.0-105.0,1,aug_19_2019,1716,,,,6039.49,TEST,1,1,1,4,TRUE,0.2,-10,-50,0,Stimuli/Evan_Stimuli/Scissors.png,Stimuli/Evan_Stimuli/Girl.png,Stimuli/Evan_Stimuli/House.png,Stimuli/Evan_Stimuli/Zebra.png,49,1,1,2,0,-10,-10,0.2,-50,-50,TRUE,0,0,0,TRUE,loss,1,104,,,,,,,,,,,
,evan-display-text,106,1090847,0.0-106.0,1,aug_19_2019,1716,Great work!.,Let's take a 5 second break.,,,TRAIN INFO,,,,,,,,,,,,,,,,,,,,,,,,,,,,,,,,,,,,,,,,,,
,evan-run-trial,107,1102276,0.0-107.0,1,aug_19_2019,1716,,,,3271.695,TEST,1,1,1,4,TRUE,0.4,-40,-50,0,Stimuli/Evan_Stimuli/Scissors.png,Stimuli/Evan_Stimuli/Girl.png,Stimuli/Evan_Stimuli/House.png,Stimuli/Evan_Stimuli/Hand.png,49,1,1,1,-50,-40,-40,0.4,-50,-50,TRUE,0,0,0,FALSE,loss,2,106,,,,,,,,,,,
,evan-run-trial,108,1112603,0.0-108.0,1,aug_19_2019,1716,,,,2181.87,TEST,1,1,1,4,TRUE,0.2,-40,-70,0,Stimuli/Evan_Stimuli/Scissors.png,Stimuli/Evan_Stimuli/Girl.png,Stimuli/Evan_Stimuli/House.png,Stimuli/Evan_Stimuli/Zebra.png,49,1,1,1,-70,-40,-40,0.2,-70,-70,TRUE,0,0,0,FALSE,loss,1,107,,,,,,,,,,,
,evan-run-trial,109,1124830,0.0-109.0,1,aug_19_2019,1716,,,,4081.165,TEST,1,1,1,4,TRUE,0.4,-40,0,-70,Stimuli/Evan_Stimuli/Scissors.png,Stimuli/Evan_Stimuli/Girl.png,Stimuli/Evan_Stimuli/House.png,Stimuli/Evan_Stimuli/Hand.png,50,2,0,3,-40,-40,-40,0.6,-70,-70,FALSE,0,0,0,FALSE,loss,2,108,,,,,,,,,,,
,evan-run-trial,110,1130600,0.0-110.0,1,aug_19_2019,1716,,,,null,REW TEST 1,1,1,1,1,TRUE,0,40,0,70,Stimuli/Evan_Stimuli/Scissors.png,Stimuli/Evan_Stimuli/Girl.png,Stimuli/Evan_Stimuli/House.png,Stimuli/Evan_Stimuli/Hand.png,null,null,null,null,null,,,,,,,,,,,,,109,,,,,,,,,,,
,evan-reward-quiz,111,1132826,0.0-111.0,1,aug_19_2019,1716,,,,1722.645,,,,,,,,,,,,,,,,,,,,,,,,,,,,,,,,,Stimuli/Evan_Stimuli/House.png,40,HOUSE,1,52,,,,,,
,evan-run-trial,112,1142962,0.0-112.0,1,aug_19_2019,1716,,,,2008.065,TEST,1,1,1,4,TRUE,0.2,-20,0,-70,Stimuli/Evan_Stimuli/Scissors.png,Stimuli/Evan_Stimuli/Girl.png,Stimuli/Evan_Stimuli/House.png,Stimuli/Evan_Stimuli/Zebra.png,50,2,0,3,-20,-20,-20,0.8,-70,-70,FALSE,0,0,0,FALSE,loss,1,111,,,,,,,,,,,
,evan-run-trial,113,1152253,0.0-113.0,1,aug_19_2019,1716,,,,1160.89,TEST,1,1,1,4,TRUE,0.4,-40,0,-90,Stimuli/Evan_Stimuli/Scissors.png,Stimuli/Evan_Stimuli/Girl.png,Stimuli/Evan_Stimuli/House.png,Stimuli/Evan_Stimuli/Hand.png,50,2,0,3,-40,-40,-40,0.6,-90,-90,FALSE,0,0,0,FALSE,loss,2,112,,,,,,,,,,,
,evan-run-trial,114,1164763,0.0-114.0,1,aug_19_2019,1716,,,,4365.835,TEST,1,1,1,4,TRUE,0.8,-20,-50,0,Stimuli/Evan_Stimuli/Scissors.png,Stimuli/Evan_Stimuli/Girl.png,Stimuli/Evan_Stimuli/House.png,Stimuli/Evan_Stimuli/Butterfly.png,49,1,1,1,-50,-20,-20,0.8,-50,-50,TRUE,0,0,0,FALSE,loss,4,113,,,,,,,,,,,
,evan-display-text,115,1174950,0.0-115.0,1,aug_19_2019,1716,Great job! You're half way through this part of the task.,,,10185.445,TRAIN INFO,,,,,,,,,,,,,,,,,,,,,,,,,,,,,,,,,,,,,,,,,,
,evan-run-trial,116,1183997,0.0-116.0,1,aug_19_2019,1716,,,,910.695,TEST,1,1,1,4,TRUE,0.8,-20,0,-70,Stimuli/Evan_Stimuli/Scissors.png,Stimuli/Evan_Stimuli/Girl.png,Stimuli/Evan_Stimuli/House.png,Stimuli/Evan_Stimuli/Butterfly.png,49,1,1,1,0,-20,-20,0.2,-70,-70,FALSE,0,0,0,FALSE,loss,4,114,,,,,,,,,,,
,evan-display-text,117,1186470,0.0-117.0,1,aug_19_2019,1716,The next set of games will all have positive points.,Collecting more of these will make your bonus larger.,,2472.075,TRAIN INFO,,,,,,,,,,,,,,,,,,,,,,,,,,,,,,,,,,,,,,,,,,
,evan-run-trial,118,1196257,0.0-118.0,1,aug_19_2019,1716,,,,1641.805,TEST,1,1,1,4,TRUE,0.2,20,0,90,Stimuli/Evan_Stimuli/Scissors.png,Stimuli/Evan_Stimuli/Girl.png,Stimuli/Evan_Stimuli/House.png,Stimuli/Evan_Stimuli/Zebra.png,49,1,1,2,90,20,20,0.8,90,90,FALSE,0,0,0,FALSE,gain,1,116,,,,,,,,,,,
,evan-run-trial,119,1205764,0.0-119.0,1,aug_19_2019,1716,,,,1353.46,TEST,1,1,1,4,TRUE,0.6,20,50,0,Stimuli/Evan_Stimuli/Scissors.png,Stimuli/Evan_Stimuli/Girl.png,Stimuli/Evan_Stimuli/House.png,Stimuli/Evan_Stimuli/Pepper.png,49,1,1,1,50,20,20,0.6,50,50,TRUE,0,0,0,FALSE,gain,3,117,,,,,,,,,,,
,evan-run-trial,120,1211538,0.0-120.0,1,aug_19_2019,1716,,,,null,REW TEST 1,1,1,1,1,TRUE,0,20,0,90,Stimuli/Evan_Stimuli/Scissors.png,Stimuli/Evan_Stimuli/Girl.png,Stimuli/Evan_Stimuli/House.png,Stimuli/Evan_Stimuli/Hand.png,null,null,null,null,null,,,,,,,,,,,,,118,,,,,,,,,,,
,evan-reward-quiz,121,1213338,0.0-121.0,1,aug_19_2019,1716,,,,1296.285,,,,,,,,,,,,,,,,,,,,,,,,,,,,,,,,,Stimuli/Evan_Stimuli/Girl.png,90,GIRL,1,51,,,,,,
,evan-run-trial,122,1225697,0.0-122.0,1,aug_19_2019,1716,,,,4207.255,TEST,1,1,1,4,TRUE,0.4,20,70,0,Stimuli/Evan_Stimuli/Scissors.png,Stimuli/Evan_Stimuli/Girl.png,Stimuli/Evan_Stimuli/House.png,Stimuli/Evan_Stimuli/Hand.png,49,1,1,1,70,20,20,0.4,70,70,TRUE,0,0,0,FALSE,gain,2,120,,,,,,,,,,,
,evan-run-trial,123,1236357,0.0-123.0,1,aug_19_2019,1716,,,,2519.115,TEST,1,1,1,4,TRUE,0.8,40,0,90,Stimuli/Evan_Stimuli/Scissors.png,Stimuli/Evan_Stimuli/Girl.png,Stimuli/Evan_Stimuli/House.png,Stimuli/Evan_Stimuli/Butterfly.png,50,2,0,3,40,40,40,0.2,90,90,FALSE,0,0,0,FALSE,gain,4,121,,,,,,,,,,,
,evan-run-trial,124,1247066,0.0-124.0,1,aug_19_2019,1716,,,,2564.57,TEST,1,1,1,4,TRUE,0.2,15,70,0,Stimuli/Evan_Stimuli/Scissors.png,Stimuli/Evan_Stimuli/Girl.png,Stimuli/Evan_Stimuli/House.png,Stimuli/Evan_Stimuli/Zebra.png,49,1,1,2,0,15,15,0.2,70,70,TRUE,0,0,0,TRUE,gain,1,122,,,,,,,,,,,
,evan-run-trial,125,1258960,0.0-125.0,1,aug_19_2019,1716,,,,3760,TEST,1,1,1,4,TRUE,0.6,20,0,50,Stimuli/Evan_Stimuli/Scissors.png,Stimuli/Evan_Stimuli/Girl.png,Stimuli/Evan_Stimuli/House.png,Stimuli/Evan_Stimuli/Pepper.png,50,2,0,3,20,20,20,0.4,50,50,FALSE,0,0,0,FALSE,gain,3,123,,,,,,,,,,,
,evan-run-trial,126,1269385,0.0-126.0,1,aug_19_2019,1716,,,,2282.675,TEST,1,1,1,4,TRUE,0.4,20,90,0,Stimuli/Evan_Stimuli/Scissors.png,Stimuli/Evan_Stimuli/Girl.png,Stimuli/Evan_Stimuli/House.png,Stimuli/Evan_Stimuli/Hand.png,49,1,1,1,90,20,20,0.4,90,90,TRUE,0,0,0,FALSE,gain,2,124,,,,,,,,,,,
,evan-display-text,127,1274388,0.0-127.0,1,aug_19_2019,1716,Great work!.,Let's take a 5 second break.,,,TRAIN INFO,,,,,,,,,,,,,,,,,,,,,,,,,,,,,,,,,,,,,,,,,,
,evan-run-trial,128,1285800,0.0-128.0,1,aug_19_2019,1716,,,,3285.815,TEST,1,1,1,4,TRUE,0.4,45,0,70,Stimuli/Evan_Stimuli/Scissors.png,Stimuli/Evan_Stimuli/Girl.png,Stimuli/Evan_Stimuli/House.png,Stimuli/Evan_Stimuli/Hand.png,50,2,0,3,45,45,45,0.6,70,70,FALSE,0,0,0,TRUE,gain,2,126,,,,,,,,,,,
,evan-run-trial,129,1298411,0.0-129.0,1,aug_19_2019,1716,,,,4466.565,TEST,1,1,1,4,TRUE,0.8,10,0,50,Stimuli/Evan_Stimuli/Scissors.png,Stimuli/Evan_Stimuli/Girl.png,Stimuli/Evan_Stimuli/House.png,Stimuli/Evan_Stimuli/Butterfly.png,50,2,0,3,10,10,10,0.2,50,50,FALSE,0,0,0,TRUE,gain,4,127,,,,,,,,,,,
,evan-run-trial,130,1309421,0.0-130.0,1,aug_19_2019,1716,,,,2863.81,TEST,1,1,1,4,TRUE,0.8,40,0,70,Stimuli/Evan_Stimuli/Scissors.png,Stimuli/Evan_Stimuli/Girl.png,Stimuli/Evan_Stimuli/House.png,Stimuli/Evan_Stimuli/Butterfly.png,50,2,0,3,40,40,40,0.2,70,70,FALSE,0,0,0,FALSE,gain,4,128,,,,,,,,,,,
,evan-run-trial,131,1322231,0.0-131.0,1,aug_19_2019,1716,,,,4670.685,TEST,1,1,1,4,TRUE,0.2,20,50,0,Stimuli/Evan_Stimuli/Scissors.png,Stimuli/Evan_Stimuli/Girl.png,Stimuli/Evan_Stimuli/House.png,Stimuli/Evan_Stimuli/Zebra.png,50,2,0,3,20,20,20,0.2,50,50,TRUE,0,0,0,FALSE,gain,1,129,,,,,,,,,,,
,evan-run-trial,132,1334909,0.0-132.0,1,aug_19_2019,1716,,,,4531.79,TEST,1,1,1,4,TRUE,0.4,40,90,0,Stimuli/Evan_Stimuli/Scissors.png,Stimuli/Evan_Stimuli/Girl.png,Stimuli/Evan_Stimuli/House.png,Stimuli/Evan_Stimuli/Hand.png,50,2,0,3,40,40,40,0.4,90,90,TRUE,0,0,0,FALSE,gain,2,130,,,,,,,,,,,
,evan-run-trial,133,1344550,0.0-133.0,1,aug_19_2019,1716,,,,1501.53,TEST,1,1,1,4,TRUE,0.6,20,0,70,Stimuli/Evan_Stimuli/Scissors.png,Stimuli/Evan_Stimuli/Girl.png,Stimuli/Evan_Stimuli/House.png,Stimuli/Evan_Stimuli/Pepper.png,50,2,0,3,20,20,20,0.4,70,70,FALSE,0,0,0,FALSE,gain,3,131,,,,,,,,,,,
,evan-run-trial,134,1356377,0.0-134.0,1,aug_19_2019,1716,,,,3683.13,TEST,1,1,1,4,TRUE,0.4,55,0,90,Stimuli/Evan_Stimuli/Scissors.png,Stimuli/Evan_Stimuli/Girl.png,Stimuli/Evan_Stimuli/House.png,Stimuli/Evan_Stimuli/Hand.png,49,1,1,1,0,55,55,0.6,90,90,FALSE,0,0,0,TRUE,gain,2,132,,,,,,,,,,,
,evan-display-text,135,1360390,0.0-135.0,1,aug_19_2019,1716,The next set of games will all have negative points.,Collecting more of these will make your bonus smaller.,,4012.04,TRAIN INFO,,,,,,,,,,,,,,,,,,,,,,,,,,,,,,,,,,,,,,,,,,
,evan-run-trial,136,1373023,0.0-136.0,1,aug_19_2019,1716,,,,4494,TEST,1,1,1,4,TRUE,0.4,-35,-90,0,Stimuli/Evan_Stimuli/Scissors.png,Stimuli/Evan_Stimuli/Girl.png,Stimuli/Evan_Stimuli/House.png,Stimuli/Evan_Stimuli/Hand.png,49,1,1,1,-90,-35,-35,0.4,-90,-90,TRUE,0,0,0,TRUE,loss,2,134,,,,,,,,,,,
,evan-run-trial,137,1378795,0.0-137.0,1,aug_19_2019,1716,,,,null,REW TEST 1,1,1,1,1,TRUE,0,40,0,70,Stimuli/Evan_Stimuli/Scissors.png,Stimuli/Evan_Stimuli/Girl.png,Stimuli/Evan_Stimuli/House.png,Stimuli/Evan_Stimuli/Hand.png,null,null,null,null,null,,,,,,,,,,,,,135,,,,,,,,,,,
,evan-reward-quiz,138,1380491,0.0-138.0,1,aug_19_2019,1716,,,,1192.075,,,,,,,,,,,,,,,,,,,,,,,,,,,,,,,,,Stimuli/Evan_Stimuli/Girl.png,70,GIRL,1,51,,,,,,
,evan-run-trial,139,1392457,0.0-139.0,1,aug_19_2019,1716,,,,3849.795,TEST,1,1,1,4,TRUE,0.6,-20,-50,0,Stimuli/Evan_Stimuli/Scissors.png,Stimuli/Evan_Stimuli/Girl.png,Stimuli/Evan_Stimuli/House.png,Stimuli/Evan_Stimuli/Pepper.png,50,2,0,3,-20,-20,-20,0.6,-50,-50,TRUE,0,0,0,FALSE,loss,3,137,,,,,,,,,,,
,evan-run-trial,140,1403766,0.0-140.0,1,aug_19_2019,1716,,,,3153.645,TEST,1,1,1,4,TRUE,0.8,-10,0,-70,Stimuli/Evan_Stimuli/Scissors.png,Stimuli/Evan_Stimuli/Girl.png,Stimuli/Evan_Stimuli/House.png,Stimuli/Evan_Stimuli/Butterfly.png,50,2,0,3,-10,-10,-10,0.2,-70,-70,FALSE,0,0,0,TRUE,loss,4,138,,,,,,,,,,,
,evan-run-trial,141,1414876,0.0-141.0,1,aug_19_2019,1716,,,,2964.095,TEST,1,1,1,4,TRUE,0.6,-25,0,-70,Stimuli/Evan_Stimuli/Scissors.png,Stimuli/Evan_Stimuli/Girl.png,Stimuli/Evan_Stimuli/House.png,Stimuli/Evan_Stimuli/Pepper.png,50,2,0,3,-25,-25,-25,0.4,-70,-70,FALSE,0,0,0,TRUE,loss,3,139,,,,,,,,,,,
,evan-run-trial,142,1425068,0.0-142.0,1,aug_19_2019,1716,,,,2062.185,TEST,1,1,1,4,TRUE,0.8,-40,-90,0,Stimuli/Evan_Stimuli/Scissors.png,Stimuli/Evan_Stimuli/Girl.png,Stimuli/Evan_Stimuli/House.png,Stimuli/Evan_Stimuli/Butterfly.png,50,2,0,3,-40,-40,-40,0.8,-90,-90,TRUE,0,0,0,FALSE,loss,4,140,,,,,,,,,,,
,evan-run-trial,143,1435010,0.0-143.0,1,aug_19_2019,1716,,,,1787.665,TEST,1,1,1,4,TRUE,0.6,-20,0,-90,Stimuli/Evan_Stimuli/Scissors.png,Stimuli/Evan_Stimuli/Girl.png,Stimuli/Evan_Stimuli/House.png,Stimuli/Evan_Stimuli/Pepper.png,50,2,0,3,-20,-20,-20,0.4,-90,-90,FALSE,0,0,0,FALSE,loss,3,141,,,,,,,,,,,
,evan-run-trial,144,1444217,0.0-144.0,1,aug_19_2019,1716,,,,1064.22,TEST,1,1,1,4,TRUE,0.8,-40,-50,0,Stimuli/Evan_Stimuli/Scissors.png,Stimuli/Evan_Stimuli/Girl.png,Stimuli/Evan_Stimuli/House.png,Stimuli/Evan_Stimuli/Butterfly.png,49,1,1,1,-50,-40,-40,0.8,-50,-50,TRUE,0,0,0,TRUE,loss,4,142,,,,,,,,,,,
,evan-display-text,145,1449219,0.0-145.0,1,aug_19_2019,1716,Great work!.,Let's take a 5 second break.,,,TRAIN INFO,,,,,,,,,,,,,,,,,,,,,,,,,,,,,,,,,,,,,,,,,,
,evan-run-trial,146,1458947,0.0-146.0,1,aug_19_2019,1716,,,,1572.065,TEST,1,1,1,4,TRUE,0.8,-55,-70,0,Stimuli/Evan_Stimuli/Scissors.png,Stimuli/Evan_Stimuli/Girl.png,Stimuli/Evan_Stimuli/House.png,Stimuli/Evan_Stimuli/Butterfly.png,50,2,0,3,-55,-55,-55,0.8,-70,-70,TRUE,0,0,0,TRUE,loss,4,144,,,,,,,,,,,
,evan-run-trial,147,1470340,0.0-147.0,1,aug_19_2019,1716,,,,3239.075,TEST,1,1,1,4,TRUE,0.6,-20,0,-50,Stimuli/Evan_Stimuli/Scissors.png,Stimuli/Evan_Stimuli/Girl.png,Stimuli/Evan_Stimuli/House.png,Stimuli/Evan_Stimuli/Pepper.png,49,1,1,2,-50,-20,-20,0.4,-50,-50,FALSE,0,0,0,TRUE,loss,3,145,,,,,,,,,,,
,evan-run-trial,148,1483418,0.0-148.0,1,aug_19_2019,1716,,,,4934.425,TEST,1,1,1,4,TRUE,0.6,-35,0,-90,Stimuli/Evan_Stimuli/Scissors.png,Stimuli/Evan_Stimuli/Girl.png,Stimuli/Evan_Stimuli/House.png,Stimuli/Evan_Stimuli/Pepper.png,50,2,0,3,-35,-35,-35,0.4,-90,-90,FALSE,0,0,0,TRUE,loss,3,146,,,,,,,,,,,
,evan-run-trial,149,1495345,0.0-149.0,1,aug_19_2019,1716,,,,3776.465,TEST,1,1,1,4,TRUE,0.2,-15,-90,0,Stimuli/Evan_Stimuli/Scissors.png,Stimuli/Evan_Stimuli/Girl.png,Stimuli/Evan_Stimuli/House.png,Stimuli/Evan_Stimuli/Zebra.png,50,2,0,3,-15,-15,-15,0.2,-90,-90,TRUE,0,0,0,TRUE,loss,1,147,,,,,,,,,,,
,evan-run-trial,150,1506186,0.0-150.0,1,aug_19_2019,1716,,,,2698.035,TEST,1,1,1,4,TRUE,0.8,-40,-70,0,Stimuli/Evan_Stimuli/Scissors.png,Stimuli/Evan_Stimuli/Girl.png,Stimuli/Evan_Stimuli/House.png,Stimuli/Evan_Stimuli/Butterfly.png,50,2,0,3,-40,-40,-40,0.8,-70,-70,TRUE,0,0,0,FALSE,loss,4,148,,,,,,,,,,,
,evan-run-trial,151,1511959,0.0-151.0,1,aug_19_2019,1716,,,,null,REW TEST 1,1,1,1,1,TRUE,0,40,0,50,Stimuli/Evan_Stimuli/Scissors.png,Stimuli/Evan_Stimuli/Girl.png,Stimuli/Evan_Stimuli/House.png,Stimuli/Evan_Stimuli/Hand.png,null,null,null,null,null,,,,,,,,,,,,,149,,,,,,,,,,,
,evan-reward-quiz,152,1513626,0.0-152.0,1,aug_19_2019,1716,,,,1164.185,,,,,,,,,,,,,,,,,,,,,,,,,,,,,,,,,Stimuli/Evan_Stimuli/Girl.png,50,GIRL,1,50,,,,,,
,evan-run-trial,153,1524369,0.0-153.0,1,aug_19_2019,1716,,,,2590.655,TEST,1,1,1,4,TRUE,0.2,-40,-90,0,Stimuli/Evan_Stimuli/Scissors.png,Stimuli/Evan_Stimuli/Girl.png,Stimuli/Evan_Stimuli/House.png,Stimuli/Evan_Stimuli/Zebra.png,49,1,1,2,0,-40,-40,0.2,-90,-90,TRUE,0,0,0,FALSE,loss,1,151,,,,,,,,,,,
,evan-run-trial,154,1534061,0.0-154.0,1,aug_19_2019,1716,,,,1560.845,TEST,1,1,1,4,TRUE,0.4,-20,-50,0,Stimuli/Evan_Stimuli/Scissors.png,Stimuli/Evan_Stimuli/Girl.png,Stimuli/Evan_Stimuli/House.png,Stimuli/Evan_Stimuli/Hand.png,49,1,1,1,-50,-20,-20,0.4,-50,-50,TRUE,0,0,0,TRUE,loss,2,152,,,,,,,,,,,
,evan-display-text,155,1661013,0.0-155.0,1,aug_19_2019,1716,The next set of games will all have positive points.,Collecting more of these will make your bonus larger.,,126951.14,TRAIN INFO,,,,,,,,,,,,,,,,,,,,,,,,,,,,,,,,,,,,,,,,,,
,evan-run-trial,156,1670410,0.0-156.0,1,aug_19_2019,1716,,,,1263.975,TEST,1,1,1,4,TRUE,0.4,40,0,50,Stimuli/Evan_Stimuli/Scissors.png,Stimuli/Evan_Stimuli/Girl.png,Stimuli/Evan_Stimuli/House.png,Stimuli/Evan_Stimuli/Hand.png,50,2,0,3,40,40,40,0.6,50,50,FALSE,0,0,0,FALSE,gain,2,154,,,,,,,,,,,
,evan-run-trial,157,1679952,0.0-157.0,1,aug_19_2019,1716,,,,1391.875,TEST,1,1,1,4,TRUE,0.8,20,70,0,Stimuli/Evan_Stimuli/Scissors.png,Stimuli/Evan_Stimuli/Girl.png,Stimuli/Evan_Stimuli/House.png,Stimuli/Evan_Stimuli/Butterfly.png,49,1,1,1,70,20,20,0.8,70,70,TRUE,0,0,0,FALSE,gain,4,155,,,,,,,,,,,
,evan-run-trial,158,1690292,0.0-158.0,1,aug_19_2019,1716,,,,2186.345,TEST,1,1,1,4,TRUE,0.2,20,90,0,Stimuli/Evan_Stimuli/Scissors.png,Stimuli/Evan_Stimuli/Girl.png,Stimuli/Evan_Stimuli/House.png,Stimuli/Evan_Stimuli/Zebra.png,49,1,1,2,0,20,20,0.2,90,90,TRUE,0,0,0,TRUE,gain,1,156,,,,,,,,,,,
,evan-run-trial,159,1701903,0.0-159.0,1,aug_19_2019,1716,,,,3460.445,TEST,1,1,1,4,TRUE,0.8,15,0,70,Stimuli/Evan_Stimuli/Scissors.png,Stimuli/Evan_Stimuli/Girl.png,Stimuli/Evan_Stimuli/House.png,Stimuli/Evan_Stimuli/Butterfly.png,49,1,1,1,0,15,15,0.2,70,70,FALSE,0,0,0,TRUE,gain,4,157,,,,,,,,,,,
,evan-run-trial,160,1714214,0.0-160.0,1,aug_19_2019,1716,,,,4167.705,TEST,1,1,1,4,TRUE,0.4,40,0,90,Stimuli/Evan_Stimuli/Scissors.png,Stimuli/Evan_Stimuli/Girl.png,Stimuli/Evan_Stimuli/House.png,Stimuli/Evan_Stimuli/Hand.png,49,1,1,2,90,40,40,0.6,90,90,FALSE,0,0,0,FALSE,gain,2,158,,,,,,,,,,,
,evan-run-trial,161,1726957,0.0-161.0,1,aug_19_2019,1716,,,,4594.43,TEST,1,1,1,4,TRUE,0.8,20,0,90,Stimuli/Evan_Stimuli/Scissors.png,Stimuli/Evan_Stimuli/Girl.png,Stimuli/Evan_Stimuli/House.png,Stimuli/Evan_Stimuli/Butterfly.png,50,2,0,3,20,20,20,0.2,90,90,FALSE,0,0,0,TRUE,gain,4,159,,,,,,,,,,,
,evan-run-trial,162,1737751,0.0-162.0,1,aug_19_2019,1716,,,,2668.49,TEST,1,1,1,4,TRUE,0.8,40,0,50,Stimuli/Evan_Stimuli/Scissors.png,Stimuli/Evan_Stimuli/Girl.png,Stimuli/Evan_Stimuli/House.png,Stimuli/Evan_Stimuli/Butterfly.png,50,2,0,3,40,40,40,0.2,50,50,FALSE,0,0,0,FALSE,gain,4,160,,,,,,,,,,,
,evan-display-text,163,1742754,0.0-163.0,1,aug_19_2019,1716,Great work!.,Let's take a 5 second break.,,,TRAIN INFO,,,,,,,,,,,,,,,,,,,,,,,,,,,,,,,,,,,,,,,,,,
,evan-run-trial,164,1754247,0.0-164.0,1,aug_19_2019,1716,,,,3335.11,TEST,1,1,1,4,TRUE,0.4,20,50,0,Stimuli/Evan_Stimuli/Scissors.png,Stimuli/Evan_Stimuli/Girl.png,Stimuli/Evan_Stimuli/House.png,Stimuli/Evan_Stimuli/Hand.png,50,2,0,3,20,20,20,0.4,50,50,TRUE,0,0,0,TRUE,gain,2,162,,,,,,,,,,,
,evan-run-trial,165,1765557,0.0-165.0,1,aug_19_2019,1716,,,,3154.34,TEST,1,1,1,4,TRUE,0.4,30,70,0,Stimuli/Evan_Stimuli/Scissors.png,Stimuli/Evan_Stimuli/Girl.png,Stimuli/Evan_Stimuli/House.png,Stimuli/Evan_Stimuli/Hand.png,50,2,0,3,30,30,30,0.4,70,70,TRUE,0,0,0,TRUE,gain,2,163,,,,,,,,,,,
,evan-run-trial,166,1774916,0.0-166.0,1,aug_19_2019,1716,,,,1203.545,TEST,1,1,1,4,TRUE,0.6,20,90,0,Stimuli/Evan_Stimuli/Scissors.png,Stimuli/Evan_Stimuli/Girl.png,Stimuli/Evan_Stimuli/House.png,Stimuli/Evan_Stimuli/Pepper.png,49,1,1,1,90,20,20,0.6,90,90,TRUE,0,0,0,FALSE,gain,3,164,,,,,,,,,,,
,evan-run-trial,167,1786510,0.0-167.0,1,aug_19_2019,1716,,,,3461.28,TEST,1,1,1,4,TRUE,0.6,20,0,50,Stimuli/Evan_Stimuli/Scissors.png,Stimuli/Evan_Stimuli/Girl.png,Stimuli/Evan_Stimuli/House.png,Stimuli/Evan_Stimuli/Pepper.png,49,1,1,2,50,20,20,0.4,50,50,FALSE,0,0,0,TRUE,gain,3,165,,,,,,,,,,,
,evan-run-trial,168,1797703,0.0-168.0,1,aug_19_2019,1716,,,,3037.095,TEST,1,1,1,4,TRUE,0.8,40,50,0,Stimuli/Evan_Stimuli/Scissors.png,Stimuli/Evan_Stimuli/Girl.png,Stimuli/Evan_Stimuli/House.png,Stimuli/Evan_Stimuli/Butterfly.png,50,2,0,3,40,40,40,0.8,50,50,TRUE,0,0,0,FALSE,gain,4,166,,,,,,,,,,,
,evan-run-trial,169,1809311,0.0-169.0,1,aug_19_2019,1716,,,,3460.06,TEST,1,1,1,4,TRUE,0.6,30,50,0,Stimuli/Evan_Stimuli/Scissors.png,Stimuli/Evan_Stimuli/Girl.png,Stimuli/Evan_Stimuli/House.png,Stimuli/Evan_Stimuli/Pepper.png,50,2,0,3,30,30,30,0.6,50,50,TRUE,0,0,0,TRUE,gain,3,167,,,,,,,,,,,
,evan-run-trial,170,1820822,0.0-170.0,1,aug_19_2019,1716,,,,3354.385,TEST,1,1,1,4,TRUE,0.4,20,0,90,Stimuli/Evan_Stimuli/Scissors.png,Stimuli/Evan_Stimuli/Girl.png,Stimuli/Evan_Stimuli/House.png,Stimuli/Evan_Stimuli/Hand.png,49,1,1,2,90,20,20,0.6,90,90,FALSE,0,0,0,FALSE,gain,2,168,,,,,,,,,,,
,evan-display-text,171,1824662,0.0-171.0,1,aug_19_2019,1716,The next set of games will all have negative points.,Collecting more of these will make your bonus smaller.,,3837.435,TRAIN INFO,,,,,,,,,,,,,,,,,,,,,,,,,,,,,,,,,,,,,,,,,,
,evan-run-trial,172,1834167,0.0-172.0,1,aug_19_2019,1716,,,,1366.365,TEST,1,1,1,4,TRUE,0.2,-15,-90,0,Stimuli/Evan_Stimuli/Scissors.png,Stimuli/Evan_Stimuli/Girl.png,Stimuli/Evan_Stimuli/House.png,Stimuli/Evan_Stimuli/Zebra.png,50,2,0,3,-15,-15,-15,0.2,-90,-90,TRUE,0,0,0,TRUE,loss,1,170,,,,,,,,,,,
,evan-display-text,173,1840278,0.0-173.0,1,aug_19_2019,1716,Great job! You're three quarters of the way through this part of the task.,,,6108.98,TRAIN INFO,,,,,,,,,,,,,,,,,,,,,,,,,,,,,,,,,,,,,,,,,,
,evan-run-trial,174,1852197,0.0-174.0,1,aug_19_2019,1716,,,,3771.735,TEST,1,1,1,4,TRUE,0.4,-50,0,-90,Stimuli/Evan_Stimuli/Scissors.png,Stimuli/Evan_Stimuli/Girl.png,Stimuli/Evan_Stimuli/House.png,Stimuli/Evan_Stimuli/Hand.png,49,1,1,2,-90,-50,-50,0.6,-90,-90,FALSE,0,0,0,TRUE,loss,2,171,,,,,,,,,,,
,evan-run-trial,175,1862541,0.0-175.0,1,aug_19_2019,1716,,,,2209.75,TEST,1,1,1,4,TRUE,0.6,-40,0,-90,Stimuli/Evan_Stimuli/Scissors.png,Stimuli/Evan_Stimuli/Girl.png,Stimuli/Evan_Stimuli/House.png,Stimuli/Evan_Stimuli/Pepper.png,49,1,1,2,-90,-40,-40,0.4,-90,-90,FALSE,0,0,0,FALSE,loss,3,172,,,,,,,,,,,
,evan-run-trial,176,1872899,0.0-176.0,1,aug_19_2019,1716,,,,2205.935,TEST,1,1,1,4,TRUE,0.6,-20,0,-50,Stimuli/Evan_Stimuli/Scissors.png,Stimuli/Evan_Stimuli/Girl.png,Stimuli/Evan_Stimuli/House.png,Stimuli/Evan_Stimuli/Pepper.png,50,2,0,3,-20,-20,-20,0.4,-50,-50,FALSE,0,0,0,FALSE,loss,3,173,,,,,,,,,,,
,evan-run-trial,177,1884391,0.0-177.0,1,aug_19_2019,1716,,,,3351.6,TEST,1,1,1,4,TRUE,0.2,-55,0,-70,Stimuli/Evan_Stimuli/Scissors.png,Stimuli/Evan_Stimuli/Girl.png,Stimuli/Evan_Stimuli/House.png,Stimuli/Evan_Stimuli/Zebra.png,49,1,1,2,-70,-55,-55,0.8,-70,-70,FALSE,0,0,0,TRUE,loss,1,174,,,,,,,,,,,
,evan-run-trial,178,1890163,0.0-178.0,1,aug_19_2019,1716,,,,null,REW TEST 1,1,1,1,1,TRUE,0,20,50,0,Stimuli/Evan_Stimuli/Scissors.png,Stimuli/Evan_Stimuli/Girl.png,Stimuli/Evan_Stimuli/House.png,Stimuli/Evan_Stimuli/Hand.png,null,null,null,null,null,,,,,,,,,,,,,175,,,,,,,,,,,
,evan-reward-quiz,179,1893676,0.0-179.0,1,aug_19_2019,1716,,,,3008.03,,,,,,,,,,,,,,,,,,,,,,,,,,,,,,,,,Stimuli/Evan_Stimuli/Girl.png,0,GIRL,1,49,,,,,,
,evan-run-trial,180,1903559,0.0-180.0,1,aug_19_2019,1716,,,,1750.885,TEST,1,1,1,4,TRUE,0.4,-25,-70,0,Stimuli/Evan_Stimuli/Scissors.png,Stimuli/Evan_Stimuli/Girl.png,Stimuli/Evan_Stimuli/House.png,Stimuli/Evan_Stimuli/Hand.png,50,2,0,3,-25,-25,-25,0.4,-70,-70,TRUE,0,0,0,TRUE,loss,2,177,,,,,,,,,,,
,evan-run-trial,181,1914785,0.0-181.0,1,aug_19_2019,1716,,,,3091.04,TEST,1,1,1,4,TRUE,0.4,-30,0,-50,Stimuli/Evan_Stimuli/Scissors.png,Stimuli/Evan_Stimuli/Girl.png,Stimuli/Evan_Stimuli/House.png,Stimuli/Evan_Stimuli/Hand.png,49,1,1,2,-50,-30,-30,0.6,-50,-50,FALSE,0,0,0,TRUE,loss,2,178,,,,,,,,,,,
,evan-display-text,182,1919787,0.0-182.0,1,aug_19_2019,1716,Great work!.,Let's take a 5 second break.,,,TRAIN INFO,,,,,,,,,,,,,,,,,,,,,,,,,,,,,,,,,,,,,,,,,,
,evan-run-trial,183,1930615,0.0-183.0,1,aug_19_2019,1716,,,,2684.74,TEST,1,1,1,4,TRUE,0.8,-20,0,-50,Stimuli/Evan_Stimuli/Scissors.png,Stimuli/Evan_Stimuli/Girl.png,Stimuli/Evan_Stimuli/House.png,Stimuli/Evan_Stimuli/Butterfly.png,50,2,0,3,-20,-20,-20,0.2,-50,-50,FALSE,0,0,0,FALSE,loss,4,180,,,,,,,,,,,
,evan-run-trial,184,1941023,0.0-184.0,1,aug_19_2019,1716,,,,2259.095,TEST,1,1,1,4,TRUE,0.8,-40,0,-50,Stimuli/Evan_Stimuli/Scissors.png,Stimuli/Evan_Stimuli/Girl.png,Stimuli/Evan_Stimuli/House.png,Stimuli/Evan_Stimuli/Butterfly.png,49,1,1,1,0,-40,-40,0.2,-50,-50,FALSE,0,0,0,FALSE,loss,4,181,,,,,,,,,,,
,evan-run-trial,185,1951832,0.0-185.0,1,aug_19_2019,1716,,,,2666.4,TEST,1,1,1,4,TRUE,0.6,-35,0,-90,Stimuli/Evan_Stimuli/Scissors.png,Stimuli/Evan_Stimuli/Girl.png,Stimuli/Evan_Stimuli/House.png,Stimuli/Evan_Stimuli/Pepper.png,50,2,0,3,-35,-35,-35,0.4,-90,-90,FALSE,0,0,0,TRUE,loss,3,182,,,,,,,,,,,
,evan-run-trial,186,1962960,0.0-186.0,1,aug_19_2019,1716,,,,2992.455,TEST,1,1,1,4,TRUE,0.8,-55,-70,0,Stimuli/Evan_Stimuli/Scissors.png,Stimuli/Evan_Stimuli/Girl.png,Stimuli/Evan_Stimuli/House.png,Stimuli/Evan_Stimuli/Butterfly.png,50,2,0,3,-55,-55,-55,0.8,-70,-70,TRUE,0,0,0,TRUE,loss,4,183,,,,,,,,,,,
,evan-run-trial,187,1974219,0.0-187.0,1,aug_19_2019,1716,,,,3130.525,TEST,1,1,1,4,TRUE,0.2,-20,0,-90,Stimuli/Evan_Stimuli/Scissors.png,Stimuli/Evan_Stimuli/Girl.png,Stimuli/Evan_Stimuli/House.png,Stimuli/Evan_Stimuli/Zebra.png,50,2,0,3,-20,-20,-20,0.8,-90,-90,FALSE,0,0,0,FALSE,loss,1,184,,,,,,,,,,,
,evan-run-trial,188,1983494,0.0-188.0,1,aug_19_2019,1716,,,,1134.47,TEST,1,1,1,4,TRUE,0.4,-25,-70,0,Stimuli/Evan_Stimuli/Scissors.png,Stimuli/Evan_Stimuli/Girl.png,Stimuli/Evan_Stimuli/House.png,Stimuli/Evan_Stimuli/Hand.png,50,2,0,3,-25,-25,-25,0.4,-70,-70,TRUE,0,0,0,TRUE,loss,2,185,,,,,,,,,,,
,evan-run-trial,189,1995086,0.0-189.0,1,aug_19_2019,1716,,,,3444.08,TEST,1,1,1,4,TRUE,0.6,-20,0,-70,Stimuli/Evan_Stimuli/Scissors.png,Stimuli/Evan_Stimuli/Girl.png,Stimuli/Evan_Stimuli/House.png,Stimuli/Evan_Stimuli/Pepper.png,50,2,0,3,-20,-20,-20,0.4,-70,-70,FALSE,0,0,0,FALSE,loss,3,186,,,,,,,,,,,
,evan-display-text,190,1998821,0.0-190.0,1,aug_19_2019,1716,The next set of games will all have positive points.,Collecting more of these will make your bonus larger.,,3733.97,TRAIN INFO,,,,,,,,,,,,,,,,,,,,,,,,,,,,,,,,,,,,,,,,,,
,evan-run-trial,191,2010484,0.0-191.0,1,aug_19_2019,1716,,,,3522.095,TEST,1,1,1,4,TRUE,0.8,20,0,90,Stimuli/Evan_Stimuli/Scissors.png,Stimuli/Evan_Stimuli/Girl.png,Stimuli/Evan_Stimuli/House.png,Stimuli/Evan_Stimuli/Butterfly.png,50,2,0,3,20,20,20,0.2,90,90,FALSE,0,0,0,FALSE,gain,4,188,,,,,,,,,,,
,evan-run-trial,192,2019773,0.0-192.0,1,aug_19_2019,1716,,,,1141.43,TEST,1,1,1,4,TRUE,0.2,40,0,50,Stimuli/Evan_Stimuli/Scissors.png,Stimuli/Evan_Stimuli/Girl.png,Stimuli/Evan_Stimuli/House.png,Stimuli/Evan_Stimuli/Zebra.png,50,2,0,3,40,40,40,0.8,50,50,FALSE,0,0,0,FALSE,gain,1,189,,,,,,,,,,,
,evan-run-trial,193,2030467,0.0-193.0,1,aug_19_2019,1716,,,,2540.43,TEST,1,1,1,4,TRUE,0.4,20,0,50,Stimuli/Evan_Stimuli/Scissors.png,Stimuli/Evan_Stimuli/Girl.png,Stimuli/Evan_Stimuli/House.png,Stimuli/Evan_Stimuli/Hand.png,49,1,1,1,0,20,20,0.6,50,50,FALSE,0,0,0,FALSE,gain,2,190,,,,,,,,,,,
,evan-run-trial,194,2041777,0.0-194.0,1,aug_19_2019,1716,,,,3160.21,TEST,1,1,1,4,TRUE,0.8,60,70,0,Stimuli/Evan_Stimuli/Scissors.png,Stimuli/Evan_Stimuli/Girl.png,Stimuli/Evan_Stimuli/House.png,Stimuli/Evan_Stimuli/Butterfly.png,50,2,0,3,60,60,60,0.8,70,70,TRUE,0,0,0,TRUE,gain,4,191,,,,,,,,,,,
,evan-run-trial,195,2052269,0.0-195.0,1,aug_19_2019,1716,,,,2345.21,TEST,1,1,1,4,TRUE,0.2,40,0,50,Stimuli/Evan_Stimuli/Scissors.png,Stimuli/Evan_Stimuli/Girl.png,Stimuli/Evan_Stimuli/House.png,Stimuli/Evan_Stimuli/Zebra.png,50,2,0,3,40,40,40,0.8,50,50,FALSE,0,0,0,TRUE,gain,1,192,,,,,,,,,,,
,evan-run-trial,196,2065446,0.0-196.0,1,aug_19_2019,1716,,,,5036.835,TEST,1,1,1,4,TRUE,0.2,20,0,50,Stimuli/Evan_Stimuli/Scissors.png,Stimuli/Evan_Stimuli/Girl.png,Stimuli/Evan_Stimuli/House.png,Stimuli/Evan_Stimuli/Zebra.png,49,1,1,2,50,20,20,0.8,50,50,FALSE,0,0,0,FALSE,gain,1,193,,,,,,,,,,,
,evan-run-trial,197,2076357,0.0-197.0,1,aug_19_2019,1716,,,,2771.14,TEST,1,1,1,4,TRUE,0.2,60,0,70,Stimuli/Evan_Stimuli/Scissors.png,Stimuli/Evan_Stimuli/Girl.png,Stimuli/Evan_Stimuli/House.png,Stimuli/Evan_Stimuli/Zebra.png,50,2,0,3,60,60,60,0.8,70,70,FALSE,0,0,0,TRUE,gain,1,194,,,,,,,,,,,
,evan-display-text,198,2081360,0.0-198.0,1,aug_19_2019,1716,Great work!.,Let's take a 5 second break.,,,TRAIN INFO,,,,,,,,,,,,,,,,,,,,,,,,,,,,,,,,,,,,,,,,,,
,evan-run-trial,199,2087132,0.0-199.0,1,aug_19_2019,1716,,,,null,REW TEST 1,1,1,1,1,TRUE,0,20,90,0,Stimuli/Evan_Stimuli/Scissors.png,Stimuli/Evan_Stimuli/Girl.png,Stimuli/Evan_Stimuli/House.png,Stimuli/Evan_Stimuli/Hand.png,null,null,null,null,null,,,,,,,,,,,,,196,,,,,,,,,,,
,evan-reward-quiz,200,2089083,0.0-200.0,1,aug_19_2019,1716,,,,1446.75,,,,,,,,,,,,,,,,,,,,,,,,,,,,,,,,,Stimuli/Evan_Stimuli/Girl.png,0,GIRL,1,52,,,,,,
,evan-run-trial,201,2100026,0.0-201.0,1,aug_19_2019,1716,,,,2798.17,TEST,1,1,1,4,TRUE,0.4,30,0,50,Stimuli/Evan_Stimuli/Scissors.png,Stimuli/Evan_Stimuli/Girl.png,Stimuli/Evan_Stimuli/House.png,Stimuli/Evan_Stimuli/Hand.png,50,2,0,3,30,30,30,0.6,50,50,FALSE,0,0,0,TRUE,gain,2,198,,,,,,,,,,,
,evan-run-trial,202,2109468,0.0-202.0,1,aug_19_2019,1716,,,,1296.865,TEST,1,1,1,4,TRUE,0.2,40,0,50,Stimuli/Evan_Stimuli/Scissors.png,Stimuli/Evan_Stimuli/Girl.png,Stimuli/Evan_Stimuli/House.png,Stimuli/Evan_Stimuli/Zebra.png,50,2,0,3,40,40,40,0.8,50,50,FALSE,0,0,0,TRUE,gain,1,199,,,,,,,,,,,
,evan-run-trial,203,2120843,0.0-203.0,1,aug_19_2019,1716,,,,3230.26,TEST,1,1,1,4,TRUE,0.4,30,70,0,Stimuli/Evan_Stimuli/Scissors.png,Stimuli/Evan_Stimuli/Girl.png,Stimuli/Evan_Stimuli/House.png,Stimuli/Evan_Stimuli/Hand.png,50,2,0,3,30,30,30,0.4,70,70,TRUE,0,0,0,TRUE,gain,2,200,,,,,,,,,,,
,evan-run-trial,204,2126617,0.0-204.0,1,aug_19_2019,1716,,,,null,REW TEST 1,1,1,1,1,TRUE,0,20,70,0,Stimuli/Evan_Stimuli/Scissors.png,Stimuli/Evan_Stimuli/Girl.png,Stimuli/Evan_Stimuli/House.png,Stimuli/Evan_Stimuli/Hand.png,null,null,null,null,null,,,,,,,,,,,,,201,,,,,,,,,,,
,evan-reward-quiz,205,2128460,0.0-205.0,1,aug_19_2019,1716,,,,1338.92,,,,,,,,,,,,,,,,,,,,,,,,,,,,,,,,,Stimuli/Evan_Stimuli/Girl.png,0,GIRL,1,51,,,,,,
,evan-run-trial,206,2134222,0.0-206.0,1,aug_19_2019,1716,,,,null,REW TEST 1,1,1,1,1,TRUE,0,40,0,70,Stimuli/Evan_Stimuli/Scissors.png,Stimuli/Evan_Stimuli/Girl.png,Stimuli/Evan_Stimuli/House.png,Stimuli/Evan_Stimuli/Hand.png,null,null,null,null,null,,,,,,,,,,,,,203,,,,,,,,,,,
,evan-reward-quiz,207,2137370,0.0-207.0,1,aug_19_2019,1716,,,,2644.21,,,,,,,,,,,,,,,,,,,,,,,,,,,,,,,,,Stimuli/Evan_Stimuli/Scissors.png,0,SCISSORS,1,51,,,,,,
,evan-run-trial,208,2148234,0.0-208.0,1,aug_19_2019,1716,,,,2715.75,TEST,1,1,1,4,TRUE,0.2,40,0,90,Stimuli/Evan_Stimuli/Scissors.png,Stimuli/Evan_Stimuli/Girl.png,Stimuli/Evan_Stimuli/House.png,Stimuli/Evan_Stimuli/Zebra.png,49,1,1,2,90,40,40,0.8,90,90,FALSE,0,0,0,FALSE,gain,1,205,,,,,,,,,,,
,evan-run-trial,209,2158525,0.0-209.0,1,aug_19_2019,1716,,,,2144.89,TEST,1,1,1,4,TRUE,0.6,40,0,70,Stimuli/Evan_Stimuli/Scissors.png,Stimuli/Evan_Stimuli/Girl.png,Stimuli/Evan_Stimuli/House.png,Stimuli/Evan_Stimuli/Pepper.png,50,2,0,3,40,40,40,0.4,70,70,FALSE,0,0,0,FALSE,gain,3,206,,,,,,,,,,,
,evan-run-trial,210,2168817,0.0-210.0,1,aug_19_2019,1716,,,,2140.275,TEST,1,1,1,4,TRUE,0.4,40,50,0,Stimuli/Evan_Stimuli/Scissors.png,Stimuli/Evan_Stimuli/Girl.png,Stimuli/Evan_Stimuli/House.png,Stimuli/Evan_Stimuli/Hand.png,50,2,0,3,40,40,40,0.4,50,50,TRUE,0,0,0,FALSE,gain,2,207,,,,,,,,,,,
,evan-run-trial,211,2179427,0.0-211.0,1,aug_19_2019,1716,,,,2455.58,TEST,1,1,1,4,TRUE,0.6,40,90,0,Stimuli/Evan_Stimuli/Scissors.png,Stimuli/Evan_Stimuli/Girl.png,Stimuli/Evan_Stimuli/House.png,Stimuli/Evan_Stimuli/Pepper.png,49,1,1,1,90,40,40,0.6,90,90,TRUE,0,0,0,FALSE,gain,3,208,,,,,,,,,,,
,evan-display-text,212,2181029,0.0-212.0,1,aug_19_2019,1716,The next set of games will all have negative points.,Collecting more of these will make your bonus smaller.,,1600.595,TRAIN INFO,,,,,,,,,,,,,,,,,,,,,,,,,,,,,,,,,,,,,,,,,,
,evan-run-trial,213,2191271,0.0-213.0,1,aug_19_2019,1716,,,,2101.645,TEST,1,1,1,4,TRUE,0.2,-20,0,-50,Stimuli/Evan_Stimuli/Scissors.png,Stimuli/Evan_Stimuli/Girl.png,Stimuli/Evan_Stimuli/House.png,Stimuli/Evan_Stimuli/Zebra.png,50,2,0,3,-20,-20,-20,0.8,-50,-50,FALSE,0,0,0,FALSE,loss,1,210,,,,,,,,,,,
,evan-run-trial,214,2203031,0.0-214.0,1,aug_19_2019,1716,,,,3603.02,TEST,1,1,1,4,TRUE,0.6,-30,-50,0,Stimuli/Evan_Stimuli/Scissors.png,Stimuli/Evan_Stimuli/Girl.png,Stimuli/Evan_Stimuli/House.png,Stimuli/Evan_Stimuli/Pepper.png,49,1,1,1,-50,-30,-30,0.6,-50,-50,TRUE,0,0,0,TRUE,loss,3,211,,,,,,,,,,,
,evan-run-trial,215,2215574,0.0-215.0,1,aug_19_2019,1716,,,,4419.425,TEST,1,1,1,4,TRUE,0.6,-30,-50,0,Stimuli/Evan_Stimuli/Scissors.png,Stimuli/Evan_Stimuli/Girl.png,Stimuli/Evan_Stimuli/House.png,Stimuli/Evan_Stimuli/Pepper.png,50,2,0,3,-30,-30,-30,0.6,-50,-50,TRUE,0,0,0,TRUE,loss,3,212,,,,,,,,,,,
,evan-run-trial,216,2225515,0.0-216.0,1,aug_19_2019,1716,,,,1795.605,TEST,1,1,1,4,TRUE,0.2,-20,-70,0,Stimuli/Evan_Stimuli/Scissors.png,Stimuli/Evan_Stimuli/Girl.png,Stimuli/Evan_Stimuli/House.png,Stimuli/Evan_Stimuli/Zebra.png,49,1,1,2,0,-20,-20,0.2,-70,-70,TRUE,0,0,0,FALSE,loss,1,213,,,,,,,,,,,
,evan-run-trial,217,2236876,0.0-217.0,1,aug_19_2019,1716,,,,3214.07,TEST,1,1,1,4,TRUE,0.4,-20,-50,0,Stimuli/Evan_Stimuli/Scissors.png,Stimuli/Evan_Stimuli/Girl.png,Stimuli/Evan_Stimuli/House.png,Stimuli/Evan_Stimuli/Hand.png,49,1,1,2,0,-20,-20,0.4,-50,-50,TRUE,0,0,0,FALSE,loss,2,214,,,,,,,,,,,
,evan-run-trial,218,2246349,0.0-218.0,1,aug_19_2019,1716,,,,1327.48,TEST,1,1,1,4,TRUE,0.2,-10,-50,0,Stimuli/Evan_Stimuli/Scissors.png,Stimuli/Evan_Stimuli/Girl.png,Stimuli/Evan_Stimuli/House.png,Stimuli/Evan_Stimuli/Zebra.png,50,2,0,3,-10,-10,-10,0.2,-50,-50,TRUE,0,0,0,TRUE,loss,1,215,,,,,,,,,,,
,evan-run-trial,219,2257777,0.0-219.0,1,aug_19_2019,1716,,,,3292.09,TEST,1,1,1,4,TRUE,0.8,-15,0,-90,Stimuli/Evan_Stimuli/Scissors.png,Stimuli/Evan_Stimuli/Girl.png,Stimuli/Evan_Stimuli/House.png,Stimuli/Evan_Stimuli/Butterfly.png,50,2,0,3,-15,-15,-15,0.2,-90,-90,FALSE,0,0,0,TRUE,loss,4,216,,,,,,,,,,,
,evan-display-text,220,2262779,0.0-220.0,1,aug_19_2019,1716,Great work!.,Let's take a 5 second break.,,,TRAIN INFO,,,,,,,,,,,,,,,,,,,,,,,,,,,,,,,,,,,,,,,,,,
,evan-run-trial,221,2273589,0.0-221.0,1,aug_19_2019,1716,,,,2668.24,TEST,1,1,1,4,TRUE,0.2,-20,-90,0,Stimuli/Evan_Stimuli/Scissors.png,Stimuli/Evan_Stimuli/Girl.png,Stimuli/Evan_Stimuli/House.png,Stimuli/Evan_Stimuli/Zebra.png,50,2,0,3,-20,-20,-20,0.2,-90,-90,TRUE,0,0,0,FALSE,loss,1,218,,,,,,,,,,,
,evan-run-trial,222,2284183,0.0-222.0,1,aug_19_2019,1716,,,,2452.54,TEST,1,1,1,4,TRUE,0.8,-10,0,-50,Stimuli/Evan_Stimuli/Scissors.png,Stimuli/Evan_Stimuli/Girl.png,Stimuli/Evan_Stimuli/House.png,Stimuli/Evan_Stimuli/Butterfly.png,50,2,0,3,-10,-10,-10,0.2,-50,-50,FALSE,0,0,0,TRUE,loss,4,219,,,,,,,,,,,
,evan-run-trial,223,2295393,0.0-223.0,1,aug_19_2019,1716,,,,3058.575,TEST,1,1,1,4,TRUE,0.4,-20,0,-50,Stimuli/Evan_Stimuli/Scissors.png,Stimuli/Evan_Stimuli/Girl.png,Stimuli/Evan_Stimuli/House.png,Stimuli/Evan_Stimuli/Hand.png,50,2,0,3,-20,-20,-20,0.6,-50,-50,FALSE,0,0,0,FALSE,loss,2,220,,,,,,,,,,,
,evan-run-trial,224,2306384,0.0-224.0,1,aug_19_2019,1716,,,,2840.485,TEST,1,1,1,4,TRUE,0.8,-40,0,-90,Stimuli/Evan_Stimuli/Scissors.png,Stimuli/Evan_Stimuli/Girl.png,Stimuli/Evan_Stimuli/House.png,Stimuli/Evan_Stimuli/Butterfly.png,50,2,0,3,-40,-40,-40,0.2,-90,-90,FALSE,0,0,0,FALSE,loss,4,221,,,,,,,,,,,
,evan-run-trial,225,2317845,0.0-225.0,1,aug_19_2019,1716,,,,3304.865,TEST,1,1,1,4,TRUE,0.8,-20,-70,0,Stimuli/Evan_Stimuli/Scissors.png,Stimuli/Evan_Stimuli/Girl.png,Stimuli/Evan_Stimuli/House.png,Stimuli/Evan_Stimuli/Butterfly.png,50,2,0,3,-20,-20,-20,0.8,-70,-70,TRUE,0,0,0,FALSE,loss,4,222,,,,,,,,,,,
,evan-run-trial,226,2330039,0.0-226.0,1,aug_19_2019,1716,,,,4036.425,TEST,1,1,1,4,TRUE,0.4,-40,0,-70,Stimuli/Evan_Stimuli/Scissors.png,Stimuli/Evan_Stimuli/Girl.png,Stimuli/Evan_Stimuli/House.png,Stimuli/Evan_Stimuli/Hand.png,50,2,0,3,-40,-40,-40,0.6,-70,-70,FALSE,0,0,0,TRUE,loss,2,223,,,,,,,,,,,
,evan-run-trial,227,2341699,0.0-227.0,1,aug_19_2019,1716,,,,3507.43,TEST,1,1,1,4,TRUE,0.2,-70,0,-90,Stimuli/Evan_Stimuli/Scissors.png,Stimuli/Evan_Stimuli/Girl.png,Stimuli/Evan_Stimuli/House.png,Stimuli/Evan_Stimuli/Zebra.png,49,1,1,2,-90,-70,-70,0.8,-90,-90,FALSE,0,0,0,TRUE,loss,1,224,,,,,,,,,,,
,html-button-response,228,2341703,0.0-228.0,1,aug_19_2019,1716,,,,,,,,,,,,,,,,,,,,,,,,,,,,,,,,,,,,,,,,,,0,0,75,-24,,
,html-button-response,228,2404997,0.0-228.0,1,aug_19_2019,1716,,,,63293,,,,,,,,,,,,,,,,,,,,,,,,,,,,,,,,,,,,,,,,,,"You have finished the task. Thank you for your contribution to science! 		 			For the attention checks in the first task, you got 0 percent correct. 					On four randomly selected choice games from the first task the average number of points you collected was 0. 					For the attention checks in the second task, you got 75 percent correct. On four randomly selected games from the second task, 					the average number of points you collected was -24. 					 Your bonus will be based on these results. You should receive your payment and bonus shortly.",0
