success,trial_type,trial_index,time_elapsed,internal_node_id,line_1,line_2,line_3,rt,phase,comp_idx,comp_rep,stim_pos_y,stim_pos_x,first_stage,last_stage,show_money_val,p_o1,safe_val,o1_val,o2_val,o1_image,o2_image,safe_image,choice_image,key_press_num,choice,accept,outcome_reached,points_received,choice_number,correct_image,correct_name,use_image,use_outcome,correct,key,p_o1_c1,p_o1_c2,chosen_side,chosen_machine,outcome_im,correct_response,C1,C2,GLtype,outcome_image,outcome_val,outcome_name,stimulus,button_pressed
TRUE,fullscreen,0,2004,0.0-0.0,,,,,,,,,,,,,,,,,,,,,,,,,,,,,,,,,,,,,,,,,,,,,,
,evan-display-text,1,5915,0.0-1.0,You'll now play the PEPPER slot machine.,"For each game, press 1 to play the machine.",Please pay attention! There will be checks.,3900.6,TRAIN INFO,1,1,,,,,,,,,,,,,,,,,,,,,,,,,,,,,,,,,,,,,,,
,evan-run-trial,2,9686,0.0-2.0,,,,985.2049993,TRAIN OBSERVE,1,1,2,1,2,4,FALSE,0,10,10,10,Stimuli/Evan_Stimuli/Scissors.png,Stimuli/Evan_Stimuli/Girl.png,Stimuli/Evan_Stimuli/House.png,Stimuli/Evan_Stimuli/Pepper.png,49,1,1,2,10,2,,,,,,,,,,,,,,,,,,,,
,evan-run-trial,3,13023,0.0-3.0,,,,533.4649999,TRAIN OBSERVE,1,1,2,1,2,4,FALSE,1,10,10,10,Stimuli/Evan_Stimuli/Scissors.png,Stimuli/Evan_Stimuli/Girl.png,Stimuli/Evan_Stimuli/House.png,Stimuli/Evan_Stimuli/Pepper.png,49,1,1,1,10,2,,,,,,,,,,,,,,,,,,,,
,evan-run-trial,4,16275,0.0-4.0,,,,477.5299998,TRAIN OBSERVE,1,1,1,1,2,4,FALSE,0,10,10,10,Stimuli/Evan_Stimuli/Scissors.png,Stimuli/Evan_Stimuli/Girl.png,Stimuli/Evan_Stimuli/House.png,Stimuli/Evan_Stimuli/Pepper.png,49,1,1,2,10,2,,,,,,,,,,,,,,,,,,,,
,evan-run-trial,5,19427,0.0-5.0,,,,374.7799993,TRAIN OBSERVE,1,1,2,1,2,4,FALSE,1,10,10,10,Stimuli/Evan_Stimuli/Scissors.png,Stimuli/Evan_Stimuli/Girl.png,Stimuli/Evan_Stimuli/House.png,Stimuli/Evan_Stimuli/Pepper.png,49,1,1,1,10,2,,,,,,,,,,,,,,,,,,,,
,evan-run-trial,6,22646,0.0-6.0,,,,425.8000003,TRAIN OBSERVE,1,1,2,1,2,4,FALSE,0,10,10,10,Stimuli/Evan_Stimuli/Scissors.png,Stimuli/Evan_Stimuli/Girl.png,Stimuli/Evan_Stimuli/House.png,Stimuli/Evan_Stimuli/Pepper.png,49,1,1,2,10,2,,,,,,,,,,,,,,,,,,,,
,evan-run-trial,7,25884,0.0-7.0,,,,438.0999999,TRAIN OBSERVE,1,1,1,1,2,4,FALSE,0,10,10,10,Stimuli/Evan_Stimuli/Scissors.png,Stimuli/Evan_Stimuli/Girl.png,Stimuli/Evan_Stimuli/House.png,Stimuli/Evan_Stimuli/Pepper.png,49,1,1,2,10,2,,,,,,,,,,,,,,,,,,,,
,evan-run-trial,8,29054,0.0-8.0,,,,386.0949995,TRAIN OBSERVE,1,1,1,1,2,4,FALSE,0,10,10,10,Stimuli/Evan_Stimuli/Scissors.png,Stimuli/Evan_Stimuli/Girl.png,Stimuli/Evan_Stimuli/House.png,Stimuli/Evan_Stimuli/Pepper.png,49,1,1,2,10,2,,,,,,,,,,,,,,,,,,,,
,evan-run-trial,9,32390,0.0-9.0,,,,558.34,TRAIN OBSERVE,1,1,2,1,2,4,FALSE,0,10,10,10,Stimuli/Evan_Stimuli/Scissors.png,Stimuli/Evan_Stimuli/Girl.png,Stimuli/Evan_Stimuli/House.png,Stimuli/Evan_Stimuli/Pepper.png,49,1,1,2,10,2,,,,,,,,,,,,,,,,,,,,
,evan-run-trial,10,35592,0.0-10.0,,,,422.6200003,TRAIN OBSERVE,1,1,2,1,2,4,FALSE,1,10,10,10,Stimuli/Evan_Stimuli/Scissors.png,Stimuli/Evan_Stimuli/Girl.png,Stimuli/Evan_Stimuli/House.png,Stimuli/Evan_Stimuli/Pepper.png,49,1,1,1,10,2,,,,,,,,,,,,,,,,,,,,
,evan-run-trial,11,38796,0.0-11.0,,,,421.1200001,TRAIN OBSERVE,1,1,1,1,2,4,FALSE,1,10,10,10,Stimuli/Evan_Stimuli/Scissors.png,Stimuli/Evan_Stimuli/Girl.png,Stimuli/Evan_Stimuli/House.png,Stimuli/Evan_Stimuli/Pepper.png,49,1,1,1,10,2,,,,,,,,,,,,,,,,,,,,
,evan-display-text,12,41371,0.0-12.0,You'll now play the HAND slot machine.,"For each game, press 1 to play the machine.",Please pay attention! There will be checks.,2572.665,TRAIN INFO,1,1,,,,,,,,,,,,,,,,,,,,,,,,,,,,,,,,,,,,,,,
,evan-run-trial,13,44516,0.0-13.0,,,,370.3899998,TRAIN OBSERVE,1,1,2,1,2,4,FALSE,0,10,10,10,Stimuli/Evan_Stimuli/Scissors.png,Stimuli/Evan_Stimuli/Girl.png,Stimuli/Evan_Stimuli/House.png,Stimuli/Evan_Stimuli/Hand.png,49,1,1,2,10,1,,,,,,,,,,,,,,,,,,,,
,evan-run-trial,14,47669,0.0-14.0,,,,360.3600003,TRAIN OBSERVE,1,1,1,1,2,4,FALSE,0,10,10,10,Stimuli/Evan_Stimuli/Scissors.png,Stimuli/Evan_Stimuli/Girl.png,Stimuli/Evan_Stimuli/House.png,Stimuli/Evan_Stimuli/Hand.png,49,1,1,2,10,1,,,,,,,,,,,,,,,,,,,,
,evan-run-trial,15,50888,0.0-15.0,,,,438.9450001,TRAIN OBSERVE,1,1,1,1,2,4,FALSE,1,10,10,10,Stimuli/Evan_Stimuli/Scissors.png,Stimuli/Evan_Stimuli/Girl.png,Stimuli/Evan_Stimuli/House.png,Stimuli/Evan_Stimuli/Hand.png,49,1,1,1,10,1,,,,,,,,,,,,,,,,,,,,
,evan-info-quiz,16,53264,0.0-16.0,,,,1868.925001,,1,1,,,,,,,,,,,,,,,,,,,,Stimuli/Evan_Stimuli/Hand.png,HAND,TRUE,FALSE,1,49,,,,,,,,,,,,,,
,evan-run-trial,17,56477,0.0-17.0,,,,429.3749994,TRAIN OBSERVE,1,1,2,1,2,4,FALSE,0,10,10,10,Stimuli/Evan_Stimuli/Scissors.png,Stimuli/Evan_Stimuli/Girl.png,Stimuli/Evan_Stimuli/House.png,Stimuli/Evan_Stimuli/Hand.png,49,1,1,2,10,1,,,,,,,,,,,,,,,,,,,,
,evan-run-trial,18,59662,0.0-18.0,,,,384.4600003,TRAIN OBSERVE,1,1,1,1,2,4,FALSE,0,10,10,10,Stimuli/Evan_Stimuli/Scissors.png,Stimuli/Evan_Stimuli/Girl.png,Stimuli/Evan_Stimuli/House.png,Stimuli/Evan_Stimuli/Hand.png,49,1,1,2,10,1,,,,,,,,,,,,,,,,,,,,
,evan-run-trial,19,62949,0.0-19.0,,,,479.1000001,TRAIN OBSERVE,1,1,1,1,2,4,FALSE,0,10,10,10,Stimuli/Evan_Stimuli/Scissors.png,Stimuli/Evan_Stimuli/Girl.png,Stimuli/Evan_Stimuli/House.png,Stimuli/Evan_Stimuli/Hand.png,49,1,1,2,10,1,,,,,,,,,,,,,,,,,,,,
,evan-run-trial,20,66134,0.0-20.0,,,,392.2049999,TRAIN OBSERVE,1,1,1,1,2,4,FALSE,0,10,10,10,Stimuli/Evan_Stimuli/Scissors.png,Stimuli/Evan_Stimuli/Girl.png,Stimuli/Evan_Stimuli/House.png,Stimuli/Evan_Stimuli/Hand.png,49,1,1,2,10,1,,,,,,,,,,,,,,,,,,,,
,evan-info-quiz,21,68703,0.0-21.0,,,,2064.55,,1,1,,,,,,,,,,,,,,,,,,,,Stimuli/Evan_Stimuli/Girl.png,GIRL,TRUE,TRUE,1,51,,,,,,,,,,,,,,
,evan-run-trial,22,71823,0.0-22.0,,,,350.7349994,TRAIN OBSERVE,1,1,2,1,2,4,FALSE,1,10,10,10,Stimuli/Evan_Stimuli/Scissors.png,Stimuli/Evan_Stimuli/Girl.png,Stimuli/Evan_Stimuli/House.png,Stimuli/Evan_Stimuli/Hand.png,49,1,1,1,10,1,,,,,,,,,,,,,,,,,,,,
,evan-run-trial,23,74941,0.0-23.0,,,,317.4899993,TRAIN OBSERVE,1,1,1,1,2,4,FALSE,0,10,10,10,Stimuli/Evan_Stimuli/Scissors.png,Stimuli/Evan_Stimuli/Girl.png,Stimuli/Evan_Stimuli/House.png,Stimuli/Evan_Stimuli/Hand.png,49,1,1,2,10,1,,,,,,,,,,,,,,,,,,,,
,evan-run-trial,24,78079,0.0-24.0,,,,351.5699999,TRAIN OBSERVE,1,1,1,1,2,4,FALSE,0,10,10,10,Stimuli/Evan_Stimuli/Scissors.png,Stimuli/Evan_Stimuli/Girl.png,Stimuli/Evan_Stimuli/House.png,Stimuli/Evan_Stimuli/Hand.png,49,1,1,2,10,1,,,,,,,,,,,,,,,,,,,,
,evan-display-text,25,84075,0.0-25.0,You'll now make some choices between the HAND and the PEPPER machines to earn points!,Press 1 to select the LEFT machine and 2 to select the RIGHT machine.,"Before each choice, you'll be shown the number of points for each banknote. Pay attention!",5994.849999,TRAIN INFO,1,1,,,,,,,,,,,,,,,,,,,,,,,,,,,,,,,,,,,,,,,
,evan-two-stim-choice,26,91857,0.0-26.0,,,,717.3299994,TRAIN CHOICE,1,1,,,1,4,,,,10,0,Stimuli/Evan_Stimuli/Scissors.png,Stimuli/Evan_Stimuli/Girl.png,,,49,,,2,0,,,,,,,,0.2,0.4,1,2,Stimuli/Evan_Stimuli/Girl.png,TRUE,1,2,GAIN,,,,,
,evan-two-stim-choice,27,99681,0.0-27.0,,,,752.1449998,TRAIN CHOICE,1,1,,,1,4,,,,0,-10,Stimuli/Evan_Stimuli/Scissors.png,Stimuli/Evan_Stimuli/Girl.png,,,49,,,2,-10,,,,,,,,0.2,0.4,1,2,Stimuli/Evan_Stimuli/Girl.png,TRUE,1,2,LOSS,,,,,
,evan-two-stim-choice,28,107837,0.0-28.0,,,,1102.93,TRAIN CHOICE,1,1,,,1,4,,,,-10,0,Stimuli/Evan_Stimuli/Scissors.png,Stimuli/Evan_Stimuli/Girl.png,,,49,,,2,0,,,,,,,,0.2,0.4,1,1,Stimuli/Evan_Stimuli/Girl.png,TRUE,1,2,LOSS,,,,,
,evan-two-stim-choice,29,115876,0.0-29.0,,,,995.9150003,TRAIN CHOICE,1,1,,,1,4,,,,0,10,Stimuli/Evan_Stimuli/Scissors.png,Stimuli/Evan_Stimuli/Girl.png,,,50,,,2,10,,,,,,,,0.2,0.4,2,1,Stimuli/Evan_Stimuli/Girl.png,TRUE,1,2,GAIN,,,,,
,evan-display-text,30,121515,0.0-30.0,You'll now play the BUTTERFLY slot machine.,"For each game, press 1 to play the machine.",Please pay attention! There will be checks.,5636.744999,TRAIN INFO,2,1,,,,,,,,,,,,,,,,,,,,,,,,,,,,,,,,,,,,,,,
,evan-run-trial,31,124803,0.0-31.0,,,,499.485,TRAIN OBSERVE,2,1,2,1,2,4,FALSE,0,10,10,10,Stimuli/Evan_Stimuli/Scissors.png,Stimuli/Evan_Stimuli/Girl.png,Stimuli/Evan_Stimuli/House.png,Stimuli/Evan_Stimuli/Butterfly.png,49,1,1,2,10,3,,,,,,,,,,,,,,,,,,,,
,evan-run-trial,32,127970,0.0-32.0,,,,360.2050003,TRAIN OBSERVE,2,1,1,1,2,4,FALSE,1,10,10,10,Stimuli/Evan_Stimuli/Scissors.png,Stimuli/Evan_Stimuli/Girl.png,Stimuli/Evan_Stimuli/House.png,Stimuli/Evan_Stimuli/Butterfly.png,49,1,1,1,10,3,,,,,,,,,,,,,,,,,,,,
,evan-info-quiz,33,129424,0.0-33.0,,,,947.7900006,,2,1,,,,,,,,,,,,,,,,,,,,Stimuli/Evan_Stimuli/Butterfly.png,BUTTERFLY,TRUE,FALSE,1,50,,,,,,,,,,,,,,
,evan-run-trial,34,132608,0.0-34.0,,,,397.2800002,TRAIN OBSERVE,2,1,1,1,2,4,FALSE,1,10,10,10,Stimuli/Evan_Stimuli/Scissors.png,Stimuli/Evan_Stimuli/Girl.png,Stimuli/Evan_Stimuli/House.png,Stimuli/Evan_Stimuli/Butterfly.png,49,1,1,1,10,3,,,,,,,,,,,,,,,,,,,,
,evan-run-trial,35,135844,0.0-35.0,,,,444.3100002,TRAIN OBSERVE,2,1,1,1,2,4,FALSE,1,10,10,10,Stimuli/Evan_Stimuli/Scissors.png,Stimuli/Evan_Stimuli/Girl.png,Stimuli/Evan_Stimuli/House.png,Stimuli/Evan_Stimuli/Butterfly.png,49,1,1,1,10,3,,,,,,,,,,,,,,,,,,,,
,evan-info-quiz,36,137040,0.0-36.0,,,,690.8750003,,2,1,,,,,,,,,,,,,,,,,,,,Stimuli/Evan_Stimuli/Scissors.png,SCISSORS,TRUE,TRUE,1,50,,,,,,,,,,,,,,
,evan-run-trial,37,140248,0.0-37.0,,,,412.8350001,TRAIN OBSERVE,2,1,2,1,2,4,FALSE,0,10,10,10,Stimuli/Evan_Stimuli/Scissors.png,Stimuli/Evan_Stimuli/Girl.png,Stimuli/Evan_Stimuli/House.png,Stimuli/Evan_Stimuli/Butterfly.png,49,1,1,2,10,3,,,,,,,,,,,,,,,,,,,,
,evan-info-quiz,38,143856,0.0-38.0,,,,3103.785,,2,1,,,,,,,,,,,,,,,,,,,,Stimuli/Evan_Stimuli/Girl.png,GIRL,TRUE,TRUE,1,49,,,,,,,,,,,,,,
,evan-run-trial,39,147120,0.0-39.0,,,,476.9199993,TRAIN OBSERVE,2,1,1,1,2,4,FALSE,1,10,10,10,Stimuli/Evan_Stimuli/Scissors.png,Stimuli/Evan_Stimuli/Girl.png,Stimuli/Evan_Stimuli/House.png,Stimuli/Evan_Stimuli/Butterfly.png,49,1,1,1,10,3,,,,,,,,,,,,,,,,,,,,
,evan-run-trial,40,150373,0.0-40.0,,,,461.1499999,TRAIN OBSERVE,2,1,1,1,2,4,FALSE,1,10,10,10,Stimuli/Evan_Stimuli/Scissors.png,Stimuli/Evan_Stimuli/Girl.png,Stimuli/Evan_Stimuli/House.png,Stimuli/Evan_Stimuli/Butterfly.png,49,1,1,1,10,3,,,,,,,,,,,,,,,,,,,,
,evan-info-quiz,41,151935,0.0-41.0,,,,1057.21,,2,1,,,,,,,,,,,,,,,,,,,,Stimuli/Evan_Stimuli/Butterfly.png,BUTTERFLY,FALSE,FALSE,1,50,,,,,,,,,,,,,,
,evan-run-trial,42,155126,0.0-42.0,,,,396.5300005,TRAIN OBSERVE,2,1,1,1,2,4,FALSE,0,10,10,10,Stimuli/Evan_Stimuli/Scissors.png,Stimuli/Evan_Stimuli/Girl.png,Stimuli/Evan_Stimuli/House.png,Stimuli/Evan_Stimuli/Butterfly.png,49,1,1,2,10,3,,,,,,,,,,,,,,,,,,,,
,evan-run-trial,43,158313,0.0-43.0,,,,391.2399998,TRAIN OBSERVE,2,1,1,1,2,4,FALSE,1,10,10,10,Stimuli/Evan_Stimuli/Scissors.png,Stimuli/Evan_Stimuli/Girl.png,Stimuli/Evan_Stimuli/House.png,Stimuli/Evan_Stimuli/Butterfly.png,49,1,1,1,10,3,,,,,,,,,,,,,,,,,,,,
,evan-run-trial,44,161448,0.0-44.0,,,,356.745,TRAIN OBSERVE,2,1,1,1,2,4,FALSE,0,10,10,10,Stimuli/Evan_Stimuli/Scissors.png,Stimuli/Evan_Stimuli/Girl.png,Stimuli/Evan_Stimuli/House.png,Stimuli/Evan_Stimuli/Butterfly.png,49,1,1,2,10,3,,,,,,,,,,,,,,,,,,,,
,evan-display-text,45,163498,0.0-45.0,You'll now play the HAND slot machine.,"For each game, press 1 to play the machine.",Please pay attention! There will be checks.,2049.415,TRAIN INFO,2,1,,,,,,,,,,,,,,,,,,,,,,,,,,,,,,,,,,,,,,,
,evan-run-trial,46,166704,0.0-46.0,,,,417.5800001,TRAIN OBSERVE,2,1,2,1,2,4,FALSE,0,10,10,10,Stimuli/Evan_Stimuli/Scissors.png,Stimuli/Evan_Stimuli/Girl.png,Stimuli/Evan_Stimuli/House.png,Stimuli/Evan_Stimuli/Hand.png,49,1,1,2,10,1,,,,,,,,,,,,,,,,,,,,
,evan-run-trial,47,169906,0.0-47.0,,,,397.5949995,TRAIN OBSERVE,2,1,1,1,2,4,FALSE,0,10,10,10,Stimuli/Evan_Stimuli/Scissors.png,Stimuli/Evan_Stimuli/Girl.png,Stimuli/Evan_Stimuli/House.png,Stimuli/Evan_Stimuli/Hand.png,49,1,1,2,10,1,,,,,,,,,,,,,,,,,,,,
,evan-run-trial,48,173143,0.0-48.0,,,,442.0649996,TRAIN OBSERVE,2,1,1,1,2,4,FALSE,1,10,10,10,Stimuli/Evan_Stimuli/Scissors.png,Stimuli/Evan_Stimuli/Girl.png,Stimuli/Evan_Stimuli/House.png,Stimuli/Evan_Stimuli/Hand.png,49,1,1,1,10,1,,,,,,,,,,,,,,,,,,,,
,evan-info-quiz,49,174464,0.0-49.0,,,,814.6050004,,2,1,,,,,,,,,,,,,,,,,,,,Stimuli/Evan_Stimuli/Scissors.png,SCISSORS,FALSE,TRUE,1,50,,,,,,,,,,,,,,
,evan-run-trial,50,177629,0.0-50.0,,,,379.5150006,TRAIN OBSERVE,2,1,2,1,2,4,FALSE,0,10,10,10,Stimuli/Evan_Stimuli/Scissors.png,Stimuli/Evan_Stimuli/Girl.png,Stimuli/Evan_Stimuli/House.png,Stimuli/Evan_Stimuli/Hand.png,49,1,1,2,10,1,,,,,,,,,,,,,,,,,,,,
,evan-run-trial,51,180815,0.0-51.0,,,,384.2850002,TRAIN OBSERVE,2,1,1,1,2,4,FALSE,0,10,10,10,Stimuli/Evan_Stimuli/Scissors.png,Stimuli/Evan_Stimuli/Girl.png,Stimuli/Evan_Stimuli/House.png,Stimuli/Evan_Stimuli/Hand.png,49,1,1,2,10,1,,,,,,,,,,,,,,,,,,,,
,evan-run-trial,52,184034,0.0-52.0,,,,430.5050001,TRAIN OBSERVE,2,1,2,1,2,4,FALSE,1,10,10,10,Stimuli/Evan_Stimuli/Scissors.png,Stimuli/Evan_Stimuli/Girl.png,Stimuli/Evan_Stimuli/House.png,Stimuli/Evan_Stimuli/Hand.png,49,1,1,1,10,1,,,,,,,,,,,,,,,,,,,,
,evan-run-trial,53,187205,0.0-53.0,,,,362.005,TRAIN OBSERVE,2,1,1,1,2,4,FALSE,0,10,10,10,Stimuli/Evan_Stimuli/Scissors.png,Stimuli/Evan_Stimuli/Girl.png,Stimuli/Evan_Stimuli/House.png,Stimuli/Evan_Stimuli/Hand.png,49,1,1,2,10,1,,,,,,,,,,,,,,,,,,,,
,evan-info-quiz,54,189823,0.0-54.0,,,,2113.945,,2,1,,,,,,,,,,,,,,,,,,,,Stimuli/Evan_Stimuli/Girl.png,GIRL,TRUE,TRUE,1,49,,,,,,,,,,,,,,
,evan-run-trial,55,193009,0.0-55.0,,,,396.9299998,TRAIN OBSERVE,2,1,2,1,2,4,FALSE,0,10,10,10,Stimuli/Evan_Stimuli/Scissors.png,Stimuli/Evan_Stimuli/Girl.png,Stimuli/Evan_Stimuli/House.png,Stimuli/Evan_Stimuli/Hand.png,49,1,1,2,10,1,,,,,,,,,,,,,,,,,,,,
,evan-run-trial,56,196178,0.0-56.0,,,,363.5750003,TRAIN OBSERVE,2,1,1,1,2,4,FALSE,0,10,10,10,Stimuli/Evan_Stimuli/Scissors.png,Stimuli/Evan_Stimuli/Girl.png,Stimuli/Evan_Stimuli/House.png,Stimuli/Evan_Stimuli/Hand.png,49,1,1,2,10,1,,,,,,,,,,,,,,,,,,,,
,evan-run-trial,57,199314,0.0-57.0,,,,345.5299996,TRAIN OBSERVE,2,1,1,1,2,4,FALSE,0,10,10,10,Stimuli/Evan_Stimuli/Scissors.png,Stimuli/Evan_Stimuli/Girl.png,Stimuli/Evan_Stimuli/House.png,Stimuli/Evan_Stimuli/Hand.png,49,1,1,2,10,1,,,,,,,,,,,,,,,,,,,,
,evan-display-text,58,201674,0.0-58.0,You'll now make some choices between the HAND and the BUTTERFLY machines to earn points!,Press 1 to select the LEFT machine and 2 to select the RIGHT machine.,"Before each choice, you'll be shown the number of points for each banknote. Pay attention!",2358.555,TRAIN INFO,2,1,,,,,,,,,,,,,,,,,,,,,,,,,,,,,,,,,,,,,,,
,evan-two-stim-choice,59,212575,0.0-59.0,,,,3822.2,TRAIN CHOICE,2,1,,,1,4,,,,-10,0,Stimuli/Evan_Stimuli/Scissors.png,Stimuli/Evan_Stimuli/Girl.png,,,50,,,2,0,,,,,,,,0.2,0.6,2,1,Stimuli/Evan_Stimuli/Girl.png,TRUE,1,3,LOSS,,,,,
,evan-two-stim-choice,60,217496,0.0-60.0,,,,null,REW TEST 1,2,1,,,1,1,,,,-10,0,Stimuli/Evan_Stimuli/Scissors.png,Stimuli/Evan_Stimuli/Girl.png,,,null,,,null,null,,,,,,,,0.2,0.4,null,null,,null,1,2,test,,,,,
,evan-reward-quiz,61,219537,0.0-61.0,,,,1533.415001,,2,1,,,,,,,,,,,,,,,,,,,,,,,,1,51,,,,,,,,,,Stimuli/Evan_Stimuli/Girl.png,0,GIRL,,
,evan-two-stim-choice,62,227722,0.0-62.0,,,,1140.785,TRAIN CHOICE,2,1,,,1,4,,,,10,0,Stimuli/Evan_Stimuli/Scissors.png,Stimuli/Evan_Stimuli/Girl.png,,,50,,,2,0,,,,,,,,0.2,0.6,2,2,Stimuli/Evan_Stimuli/Girl.png,TRUE,1,3,GAIN,,,,,
,evan-two-stim-choice,63,235545,0.0-63.0,,,,774.0599997,TRAIN CHOICE,2,1,,,1,4,,,,0,10,Stimuli/Evan_Stimuli/Scissors.png,Stimuli/Evan_Stimuli/Girl.png,,,49,,,2,10,,,,,,,,0.2,0.6,1,1,Stimuli/Evan_Stimuli/Girl.png,TRUE,1,3,GAIN,,,,,
,evan-two-stim-choice,64,243402,0.0-64.0,,,,790.4449999,TRAIN CHOICE,2,1,,,1,4,,,,0,-10,Stimuli/Evan_Stimuli/Scissors.png,Stimuli/Evan_Stimuli/Girl.png,,,50,,,2,-10,,,,,,,,0.2,0.6,2,1,Stimuli/Evan_Stimuli/Girl.png,FALSE,1,3,LOSS,,,,,
,evan-display-text,65,247338,0.0-65.0,You'll now play the PEPPER slot machine.,"For each game, press 1 to play the machine.",Please pay attention! There will be checks.,3934.25,TRAIN INFO,4,1,,,,,,,,,,,,,,,,,,,,,,,,,,,,,,,,,,,,,,,
,evan-run-trial,66,250791,0.0-66.0,,,,675.4999999,TRAIN OBSERVE,4,1,2,1,2,4,FALSE,1,10,10,10,Stimuli/Evan_Stimuli/Scissors.png,Stimuli/Evan_Stimuli/Girl.png,Stimuli/Evan_Stimuli/House.png,Stimuli/Evan_Stimuli/Pepper.png,49,1,1,1,10,2,,,,,,,,,,,,,,,,,,,,
,evan-info-quiz,67,252432,0.0-67.0,,,,1135.66,,4,1,,,,,,,,,,,,,,,,,,,,Stimuli/Evan_Stimuli/Scissors.png,SCISSORS,TRUE,TRUE,1,49,,,,,,,,,,,,,,
,evan-run-trial,68,255662,0.0-68.0,,,,444.5200004,TRAIN OBSERVE,4,1,1,1,2,4,FALSE,1,10,10,10,Stimuli/Evan_Stimuli/Scissors.png,Stimuli/Evan_Stimuli/Girl.png,Stimuli/Evan_Stimuli/House.png,Stimuli/Evan_Stimuli/Pepper.png,49,1,1,1,10,2,,,,,,,,,,,,,,,,,,,,
,evan-info-quiz,69,257471,0.0-69.0,,,,1300.085,,4,1,,,,,,,,,,,,,,,,,,,,Stimuli/Evan_Stimuli/Scissors.png,SCISSORS,FALSE,TRUE,1,50,,,,,,,,,,,,,,
,evan-run-trial,70,260583,0.0-70.0,,,,333.2849992,TRAIN OBSERVE,4,1,1,1,2,4,FALSE,1,10,10,10,Stimuli/Evan_Stimuli/Scissors.png,Stimuli/Evan_Stimuli/Girl.png,Stimuli/Evan_Stimuli/House.png,Stimuli/Evan_Stimuli/Pepper.png,49,1,1,1,10,2,,,,,,,,,,,,,,,,,,,,
,evan-info-quiz,71,263103,0.0-71.0,,,,2015.165,,4,1,,,,,,,,,,,,,,,,,,,,Stimuli/Evan_Stimuli/Pepper.png,PEPPER,TRUE,FALSE,1,51,,,,,,,,,,,,,,
,evan-run-trial,72,266355,0.0-72.0,,,,461.7299996,TRAIN OBSERVE,4,1,1,1,2,4,FALSE,0,10,10,10,Stimuli/Evan_Stimuli/Scissors.png,Stimuli/Evan_Stimuli/Girl.png,Stimuli/Evan_Stimuli/House.png,Stimuli/Evan_Stimuli/Pepper.png,49,1,1,2,10,2,,,,,,,,,,,,,,,,,,,,
,evan-info-quiz,73,269855,0.0-73.0,,,,2996.885,,4,1,,,,,,,,,,,,,,,,,,,,Stimuli/Evan_Stimuli/Pepper.png,PEPPER,FALSE,FALSE,1,50,,,,,,,,,,,,,,
,evan-run-trial,74,272977,0.0-74.0,,,,333.9200001,TRAIN OBSERVE,4,1,2,1,2,4,FALSE,0,10,10,10,Stimuli/Evan_Stimuli/Scissors.png,Stimuli/Evan_Stimuli/Girl.png,Stimuli/Evan_Stimuli/House.png,Stimuli/Evan_Stimuli/Pepper.png,49,1,1,2,10,2,,,,,,,,,,,,,,,,,,,,
,evan-run-trial,75,276096,0.0-75.0,,,,316.0149995,TRAIN OBSERVE,4,1,2,1,2,4,FALSE,1,10,10,10,Stimuli/Evan_Stimuli/Scissors.png,Stimuli/Evan_Stimuli/Girl.png,Stimuli/Evan_Stimuli/House.png,Stimuli/Evan_Stimuli/Pepper.png,49,1,1,1,10,2,,,,,,,,,,,,,,,,,,,,
,evan-info-quiz,76,279632,0.0-76.0,,,,3032.3,,4,1,,,,,,,,,,,,,,,,,,,,Stimuli/Evan_Stimuli/Scissors.png,SCISSORS,FALSE,TRUE,1,51,,,,,,,,,,,,,,
,evan-run-trial,77,282818,0.0-77.0,,,,379.4999998,TRAIN OBSERVE,4,1,1,1,2,4,FALSE,0,10,10,10,Stimuli/Evan_Stimuli/Scissors.png,Stimuli/Evan_Stimuli/Girl.png,Stimuli/Evan_Stimuli/House.png,Stimuli/Evan_Stimuli/Pepper.png,49,1,1,2,10,2,,,,,,,,,,,,,,,,,,,,
,evan-run-trial,78,285988,0.0-78.0,,,,377.4550008,TRAIN OBSERVE,4,1,1,1,2,4,FALSE,0,10,10,10,Stimuli/Evan_Stimuli/Scissors.png,Stimuli/Evan_Stimuli/Girl.png,Stimuli/Evan_Stimuli/House.png,Stimuli/Evan_Stimuli/Pepper.png,49,1,1,2,10,2,,,,,,,,,,,,,,,,,,,,
,evan-run-trial,79,289073,0.0-79.0,,,,297.1399995,TRAIN OBSERVE,4,1,1,1,2,4,FALSE,0,10,10,10,Stimuli/Evan_Stimuli/Scissors.png,Stimuli/Evan_Stimuli/Girl.png,Stimuli/Evan_Stimuli/House.png,Stimuli/Evan_Stimuli/Pepper.png,49,1,1,2,10,2,,,,,,,,,,,,,,,,,,,,
,evan-info-quiz,80,290686,0.0-80.0,,,,1110.095,,4,1,,,,,,,,,,,,,,,,,,,,Stimuli/Evan_Stimuli/Pepper.png,PEPPER,FALSE,FALSE,1,51,,,,,,,,,,,,,,
,evan-run-trial,81,293829,0.0-81.0,,,,337.0199995,TRAIN OBSERVE,4,1,2,1,2,4,FALSE,0,10,10,10,Stimuli/Evan_Stimuli/Scissors.png,Stimuli/Evan_Stimuli/Girl.png,Stimuli/Evan_Stimuli/House.png,Stimuli/Evan_Stimuli/Pepper.png,49,1,1,2,10,2,,,,,,,,,,,,,,,,,,,,
,evan-display-text,82,295994,0.0-82.0,You'll now play the BUTTERFLY slot machine.,"For each game, press 1 to play the machine.",Please pay attention! There will be checks.,2163.835,TRAIN INFO,4,1,,,,,,,,,,,,,,,,,,,,,,,,,,,,,,,,,,,,,,,
,evan-run-trial,83,299099,0.0-83.0,,,,307.3199997,TRAIN OBSERVE,4,1,2,1,2,4,FALSE,1,10,10,10,Stimuli/Evan_Stimuli/Scissors.png,Stimuli/Evan_Stimuli/Girl.png,Stimuli/Evan_Stimuli/House.png,Stimuli/Evan_Stimuli/Butterfly.png,49,1,1,1,10,3,,,,,,,,,,,,,,,,,,,,
,evan-info-quiz,84,301184,0.0-84.0,,,,1580.635,,4,1,,,,,,,,,,,,,,,,,,,,Stimuli/Evan_Stimuli/Butterfly.png,BUTTERFLY,FALSE,FALSE,1,50,,,,,,,,,,,,,,
,evan-run-trial,85,304354,0.0-85.0,,,,380.6649996,TRAIN OBSERVE,4,1,1,1,2,4,FALSE,0,10,10,10,Stimuli/Evan_Stimuli/Scissors.png,Stimuli/Evan_Stimuli/Girl.png,Stimuli/Evan_Stimuli/House.png,Stimuli/Evan_Stimuli/Butterfly.png,49,1,1,2,10,3,,,,,,,,,,,,,,,,,,,,
,evan-run-trial,86,307590,0.0-86.0,,,,441.8900004,TRAIN OBSERVE,4,1,1,1,2,4,FALSE,1,10,10,10,Stimuli/Evan_Stimuli/Scissors.png,Stimuli/Evan_Stimuli/Girl.png,Stimuli/Evan_Stimuli/House.png,Stimuli/Evan_Stimuli/Butterfly.png,49,1,1,1,10,3,,,,,,,,,,,,,,,,,,,,
,evan-run-trial,87,310675,0.0-87.0,,,,311.3700002,TRAIN OBSERVE,4,1,2,1,2,4,FALSE,0,10,10,10,Stimuli/Evan_Stimuli/Scissors.png,Stimuli/Evan_Stimuli/Girl.png,Stimuli/Evan_Stimuli/House.png,Stimuli/Evan_Stimuli/Butterfly.png,49,1,1,2,10,3,,,,,,,,,,,,,,,,,,,,
,evan-run-trial,88,313794,0.0-88.0,,,,330.2149996,TRAIN OBSERVE,4,1,1,1,2,4,FALSE,0,10,10,10,Stimuli/Evan_Stimuli/Scissors.png,Stimuli/Evan_Stimuli/Girl.png,Stimuli/Evan_Stimuli/House.png,Stimuli/Evan_Stimuli/Butterfly.png,49,1,1,2,10,3,,,,,,,,,,,,,,,,,,,,
,evan-run-trial,89,316931,0.0-89.0,,,,347.0700001,TRAIN OBSERVE,4,1,2,1,2,4,FALSE,1,10,10,10,Stimuli/Evan_Stimuli/Scissors.png,Stimuli/Evan_Stimuli/Girl.png,Stimuli/Evan_Stimuli/House.png,Stimuli/Evan_Stimuli/Butterfly.png,49,1,1,1,10,3,,,,,,,,,,,,,,,,,,,,
,evan-info-quiz,90,318879,0.0-90.0,,,,1444.65,,4,1,,,,,,,,,,,,,,,,,,,,Stimuli/Evan_Stimuli/Butterfly.png,BUTTERFLY,FALSE,FALSE,1,50,,,,,,,,,,,,,,
,evan-run-trial,91,322001,0.0-91.0,,,,318.4400005,TRAIN OBSERVE,4,1,1,1,2,4,FALSE,1,10,10,10,Stimuli/Evan_Stimuli/Scissors.png,Stimuli/Evan_Stimuli/Girl.png,Stimuli/Evan_Stimuli/House.png,Stimuli/Evan_Stimuli/Butterfly.png,49,1,1,1,10,3,,,,,,,,,,,,,,,,,,,,
,evan-info-quiz,92,323150,0.0-92.0,,,,646.4250004,,4,1,,,,,,,,,,,,,,,,,,,,Stimuli/Evan_Stimuli/Scissors.png,SCISSORS,FALSE,TRUE,1,50,,,,,,,,,,,,,,
,evan-run-trial,93,326288,0.0-93.0,,,,334.8350003,TRAIN OBSERVE,4,1,2,1,2,4,FALSE,1,10,10,10,Stimuli/Evan_Stimuli/Scissors.png,Stimuli/Evan_Stimuli/Girl.png,Stimuli/Evan_Stimuli/House.png,Stimuli/Evan_Stimuli/Butterfly.png,49,1,1,1,10,3,,,,,,,,,,,,,,,,,,,,
,evan-info-quiz,94,329119,0.0-94.0,,,,2326.32,,4,1,,,,,,,,,,,,,,,,,,,,Stimuli/Evan_Stimuli/Butterfly.png,BUTTERFLY,TRUE,FALSE,1,52,,,,,,,,,,,,,,
,evan-run-trial,95,332328,0.0-95.0,,,,413.4949995,TRAIN OBSERVE,4,1,2,1,2,4,FALSE,1,10,10,10,Stimuli/Evan_Stimuli/Scissors.png,Stimuli/Evan_Stimuli/Girl.png,Stimuli/Evan_Stimuli/House.png,Stimuli/Evan_Stimuli/Butterfly.png,49,1,1,1,10,3,,,,,,,,,,,,,,,,,,,,
,evan-run-trial,96,335430,0.0-96.0,,,,324.3649993,TRAIN OBSERVE,4,1,2,1,2,4,FALSE,0,10,10,10,Stimuli/Evan_Stimuli/Scissors.png,Stimuli/Evan_Stimuli/Girl.png,Stimuli/Evan_Stimuli/House.png,Stimuli/Evan_Stimuli/Butterfly.png,49,1,1,2,10,3,,,,,,,,,,,,,,,,,,,,
,evan-display-text,97,340794,0.0-97.0,You'll now make some choices between the PEPPER and the BUTTERFLY machines to earn points!,Press 1 to select the LEFT machine and 2 to select the RIGHT machine.,"Before each choice, you'll be shown the number of points for each banknote. Pay attention!",5362.09,TRAIN INFO,4,1,,,,,,,,,,,,,,,,,,,,,,,,,,,,,,,,,,,,,,,
,evan-two-stim-choice,98,352394,0.0-98.0,,,,4558.095,TRAIN CHOICE,4,1,,,1,4,,,,0,-10,Stimuli/Evan_Stimuli/Scissors.png,Stimuli/Evan_Stimuli/Girl.png,,,50,,,2,-10,,,,,,,,0.4,0.6,2,2,Stimuli/Evan_Stimuli/Girl.png,TRUE,2,3,LOSS,,,,,
,evan-two-stim-choice,99,360418,0.0-99.0,,,,964.8799999,TRAIN CHOICE,4,1,,,1,4,,,,-10,0,Stimuli/Evan_Stimuli/Scissors.png,Stimuli/Evan_Stimuli/Girl.png,,,49,,,1,-10,,,,,,,,0.4,0.6,1,1,Stimuli/Evan_Stimuli/Scissors.png,TRUE,2,3,LOSS,,,,,
,evan-two-stim-choice,100,368024,0.0-100.0,,,,556.3149992,TRAIN CHOICE,4,1,,,1,4,,,,10,0,Stimuli/Evan_Stimuli/Scissors.png,Stimuli/Evan_Stimuli/Girl.png,,,49,,,2,0,,,,,,,,0.4,0.6,1,1,Stimuli/Evan_Stimuli/Girl.png,FALSE,2,3,GAIN,,,,,
,evan-two-stim-choice,101,375731,0.0-101.0,,,,646.4699991,TRAIN CHOICE,4,1,,,1,4,,,,0,10,Stimuli/Evan_Stimuli/Scissors.png,Stimuli/Evan_Stimuli/Girl.png,,,50,,,2,10,,,,,,,,0.4,0.6,2,2,Stimuli/Evan_Stimuli/Girl.png,FALSE,2,3,GAIN,,,,,
,evan-display-text,102,377162,0.0-102.0,You'll now play the HAND slot machine.,"For each game, press 1 to play the machine.",Please pay attention! There will be checks.,1429.675,TRAIN INFO,3,1,,,,,,,,,,,,,,,,,,,,,,,,,,,,,,,,,,,,,,,
,evan-run-trial,103,380285,0.0-103.0,,,,337.8699999,TRAIN OBSERVE,3,1,2,1,2,4,FALSE,0,10,10,10,Stimuli/Evan_Stimuli/Scissors.png,Stimuli/Evan_Stimuli/Girl.png,Stimuli/Evan_Stimuli/House.png,Stimuli/Evan_Stimuli/Hand.png,49,1,1,2,10,1,,,,,,,,,,,,,,,,,,,,
,evan-run-trial,104,383354,0.0-104.0,,,,272.0950004,TRAIN OBSERVE,3,1,1,1,2,4,FALSE,0,10,10,10,Stimuli/Evan_Stimuli/Scissors.png,Stimuli/Evan_Stimuli/Girl.png,Stimuli/Evan_Stimuli/House.png,Stimuli/Evan_Stimuli/Hand.png,49,1,1,2,10,1,,,,,,,,,,,,,,,,,,,,
,evan-info-quiz,105,385966,0.0-105.0,,,,2109.615,,3,1,,,,,,,,,,,,,,,,,,,,Stimuli/Evan_Stimuli/Hand.png,HAND,FALSE,FALSE,1,51,,,,,,,,,,,,,,
,evan-run-trial,106,389109,0.0-106.0,,,,367.0600001,TRAIN OBSERVE,3,1,2,1,2,4,FALSE,0,10,10,10,Stimuli/Evan_Stimuli/Scissors.png,Stimuli/Evan_Stimuli/Girl.png,Stimuli/Evan_Stimuli/House.png,Stimuli/Evan_Stimuli/Hand.png,49,1,1,2,10,1,,,,,,,,,,,,,,,,,,,,
,evan-info-quiz,107,390639,0.0-107.0,,,,1025.89,,3,1,,,,,,,,,,,,,,,,,,,,Stimuli/Evan_Stimuli/Hand.png,HAND,TRUE,FALSE,1,49,,,,,,,,,,,,,,
,evan-run-trial,108,393847,0.0-108.0,,,,413.5799995,TRAIN OBSERVE,3,1,1,1,2,4,FALSE,1,10,10,10,Stimuli/Evan_Stimuli/Scissors.png,Stimuli/Evan_Stimuli/Girl.png,Stimuli/Evan_Stimuli/House.png,Stimuli/Evan_Stimuli/Hand.png,49,1,1,1,10,1,,,,,,,,,,,,,,,,,,,,
,evan-run-trial,109,397234,0.0-109.0,,,,582.2149999,TRAIN OBSERVE,3,1,2,1,2,4,FALSE,0,10,10,10,Stimuli/Evan_Stimuli/Scissors.png,Stimuli/Evan_Stimuli/Girl.png,Stimuli/Evan_Stimuli/House.png,Stimuli/Evan_Stimuli/Hand.png,49,1,1,2,10,1,,,,,,,,,,,,,,,,,,,,
,evan-run-trial,110,400419,0.0-110.0,,,,379.6349997,TRAIN OBSERVE,3,1,1,1,2,4,FALSE,0,10,10,10,Stimuli/Evan_Stimuli/Scissors.png,Stimuli/Evan_Stimuli/Girl.png,Stimuli/Evan_Stimuli/House.png,Stimuli/Evan_Stimuli/Hand.png,49,1,1,2,10,1,,,,,,,,,,,,,,,,,,,,
,evan-info-quiz,111,401999,0.0-111.0,,,,1075.759999,,3,1,,,,,,,,,,,,,,,,,,,,Stimuli/Evan_Stimuli/Girl.png,GIRL,TRUE,TRUE,1,51,,,,,,,,,,,,,,
,evan-run-trial,112,405073,0.0-112.0,,,,270.6000004,TRAIN OBSERVE,3,1,2,1,2,4,FALSE,0,10,10,10,Stimuli/Evan_Stimuli/Scissors.png,Stimuli/Evan_Stimuli/Girl.png,Stimuli/Evan_Stimuli/House.png,Stimuli/Evan_Stimuli/Hand.png,49,1,1,2,10,1,,,,,,,,,,,,,,,,,,,,
,evan-run-trial,113,408258,0.0-113.0,,,,379.9149999,TRAIN OBSERVE,3,1,1,1,2,4,FALSE,0,10,10,10,Stimuli/Evan_Stimuli/Scissors.png,Stimuli/Evan_Stimuli/Girl.png,Stimuli/Evan_Stimuli/House.png,Stimuli/Evan_Stimuli/Hand.png,49,1,1,2,10,1,,,,,,,,,,,,,,,,,,,,
,evan-run-trial,114,411561,0.0-114.0,,,,506.4449999,TRAIN OBSERVE,3,1,1,1,2,4,FALSE,0,10,10,10,Stimuli/Evan_Stimuli/Scissors.png,Stimuli/Evan_Stimuli/Girl.png,Stimuli/Evan_Stimuli/House.png,Stimuli/Evan_Stimuli/Hand.png,49,1,1,2,10,1,,,,,,,,,,,,,,,,,,,,
,evan-run-trial,115,414598,0.0-115.0,,,,259.0050008,TRAIN OBSERVE,3,1,1,1,2,4,FALSE,1,10,10,10,Stimuli/Evan_Stimuli/Scissors.png,Stimuli/Evan_Stimuli/Girl.png,Stimuli/Evan_Stimuli/House.png,Stimuli/Evan_Stimuli/Hand.png,49,1,1,1,10,1,,,,,,,,,,,,,,,,,,,,
,evan-display-text,116,415770,0.0-116.0,You'll now play the ZEBRA slot machine.,"For each game, press 1 to play the machine.",Please pay attention! There will be checks.,1170.595,TRAIN INFO,3,1,,,,,,,,,,,,,,,,,,,,,,,,,,,,,,,,,,,,,,,
,evan-run-trial,117,418868,0.0-117.0,,,,291.1450006,TRAIN OBSERVE,3,1,1,1,2,4,FALSE,1,10,10,10,Stimuli/Evan_Stimuli/Scissors.png,Stimuli/Evan_Stimuli/Girl.png,Stimuli/Evan_Stimuli/House.png,Stimuli/Evan_Stimuli/Zebra.png,49,1,1,1,10,4,,,,,,,,,,,,,,,,,,,,
,evan-run-trial,118,421970,0.0-118.0,,,,297.4899998,TRAIN OBSERVE,3,1,1,1,2,4,FALSE,1,10,10,10,Stimuli/Evan_Stimuli/Scissors.png,Stimuli/Evan_Stimuli/Girl.png,Stimuli/Evan_Stimuli/House.png,Stimuli/Evan_Stimuli/Zebra.png,49,1,1,1,10,4,,,,,,,,,,,,,,,,,,,,
,evan-run-trial,119,424989,0.0-119.0,,,,233.3549997,TRAIN OBSERVE,3,1,2,1,2,4,FALSE,1,10,10,10,Stimuli/Evan_Stimuli/Scissors.png,Stimuli/Evan_Stimuli/Girl.png,Stimuli/Evan_Stimuli/House.png,Stimuli/Evan_Stimuli/Zebra.png,49,1,1,1,10,4,,,,,,,,,,,,,,,,,,,,
,evan-run-trial,120,428077,0.0-120.0,,,,304.1249998,TRAIN OBSERVE,3,1,1,1,2,4,FALSE,1,10,10,10,Stimuli/Evan_Stimuli/Scissors.png,Stimuli/Evan_Stimuli/Girl.png,Stimuli/Evan_Stimuli/House.png,Stimuli/Evan_Stimuli/Zebra.png,49,1,1,1,10,4,,,,,,,,,,,,,,,,,,,,
,evan-run-trial,121,431162,0.0-121.0,,,,303.6249997,TRAIN OBSERVE,3,1,2,1,2,4,FALSE,0,10,10,10,Stimuli/Evan_Stimuli/Scissors.png,Stimuli/Evan_Stimuli/Girl.png,Stimuli/Evan_Stimuli/House.png,Stimuli/Evan_Stimuli/Zebra.png,49,1,1,2,10,4,,,,,,,,,,,,,,,,,,,,
,evan-run-trial,122,434247,0.0-122.0,,,,291.5449999,TRAIN OBSERVE,3,1,2,1,2,4,FALSE,1,10,10,10,Stimuli/Evan_Stimuli/Scissors.png,Stimuli/Evan_Stimuli/Girl.png,Stimuli/Evan_Stimuli/House.png,Stimuli/Evan_Stimuli/Zebra.png,49,1,1,1,10,4,,,,,,,,,,,,,,,,,,,,
,evan-run-trial,123,437301,0.0-123.0,,,,279.0550003,TRAIN OBSERVE,3,1,2,1,2,4,FALSE,0,10,10,10,Stimuli/Evan_Stimuli/Scissors.png,Stimuli/Evan_Stimuli/Girl.png,Stimuli/Evan_Stimuli/House.png,Stimuli/Evan_Stimuli/Zebra.png,49,1,1,2,10,4,,,,,,,,,,,,,,,,,,,,
,evan-run-trial,124,440420,0.0-124.0,,,,327.5950002,TRAIN OBSERVE,3,1,1,1,2,4,FALSE,1,10,10,10,Stimuli/Evan_Stimuli/Scissors.png,Stimuli/Evan_Stimuli/Girl.png,Stimuli/Evan_Stimuli/House.png,Stimuli/Evan_Stimuli/Zebra.png,49,1,1,1,10,4,,,,,,,,,,,,,,,,,,,,
,evan-run-trial,125,443572,0.0-125.0,,,,361.2199994,TRAIN OBSERVE,3,1,2,1,2,4,FALSE,1,10,10,10,Stimuli/Evan_Stimuli/Scissors.png,Stimuli/Evan_Stimuli/Girl.png,Stimuli/Evan_Stimuli/House.png,Stimuli/Evan_Stimuli/Zebra.png,49,1,1,1,10,4,,,,,,,,,,,,,,,,,,,,
,evan-run-trial,126,446776,0.0-126.0,,,,408.6499996,TRAIN OBSERVE,3,1,2,1,2,4,FALSE,1,10,10,10,Stimuli/Evan_Stimuli/Scissors.png,Stimuli/Evan_Stimuli/Girl.png,Stimuli/Evan_Stimuli/House.png,Stimuli/Evan_Stimuli/Zebra.png,49,1,1,1,10,4,,,,,,,,,,,,,,,,,,,,
,evan-display-text,127,451066,0.0-127.0,You'll now make some choices between the HAND and the ZEBRA machines to earn points!,Press 1 to select the LEFT machine and 2 to select the RIGHT machine.,"Before each choice, you'll be shown the number of points for each banknote. Pay attention!",4288.28,TRAIN INFO,3,1,,,,,,,,,,,,,,,,,,,,,,,,,,,,,,,,,,,,,,,
,evan-two-stim-choice,128,460471,0.0-128.0,,,,2346.115001,TRAIN CHOICE,3,1,,,1,4,,,,0,-10,Stimuli/Evan_Stimuli/Scissors.png,Stimuli/Evan_Stimuli/Girl.png,,,49,,,1,0,,,,,,,,0.2,0.8,1,2,Stimuli/Evan_Stimuli/Scissors.png,TRUE,1,4,LOSS,,,,,
,evan-two-stim-choice,129,468845,0.0-129.0,,,,1337.085,TRAIN CHOICE,3,1,,,1,4,,,,0,10,Stimuli/Evan_Stimuli/Scissors.png,Stimuli/Evan_Stimuli/Girl.png,,,50,,,2,10,,,,,,,,0.2,0.8,2,1,Stimuli/Evan_Stimuli/Girl.png,TRUE,1,4,GAIN,,,,,
,evan-two-stim-choice,130,476634,0.0-130.0,,,,740.1999999,TRAIN CHOICE,3,1,,,1,4,,,,10,0,Stimuli/Evan_Stimuli/Scissors.png,Stimuli/Evan_Stimuli/Girl.png,,,49,,,2,0,,,,,,,,0.2,0.8,1,2,Stimuli/Evan_Stimuli/Girl.png,TRUE,1,4,GAIN,,,,,
,evan-two-stim-choice,131,484908,0.0-131.0,,,,1205.545,TRAIN CHOICE,3,1,,,1,4,,,,-10,0,Stimuli/Evan_Stimuli/Scissors.png,Stimuli/Evan_Stimuli/Girl.png,,,50,,,2,0,,,,,,,,0.2,0.8,2,1,Stimuli/Evan_Stimuli/Girl.png,TRUE,1,4,LOSS,,,,,
,evan-display-text,132,487018,0.0-132.0,You'll now play the ZEBRA slot machine.,"For each game, press 1 to play the machine.",Please pay attention! There will be checks.,2108.545001,TRAIN INFO,5,1,,,,,,,,,,,,,,,,,,,,,,,,,,,,,,,,,,,,,,,
,evan-run-trial,133,490211,0.0-133.0,,,,401.6100001,TRAIN OBSERVE,5,1,2,1,2,4,FALSE,1,10,10,10,Stimuli/Evan_Stimuli/Scissors.png,Stimuli/Evan_Stimuli/Girl.png,Stimuli/Evan_Stimuli/House.png,Stimuli/Evan_Stimuli/Zebra.png,49,1,1,1,10,4,,,,,,,,,,,,,,,,,,,,
,evan-info-quiz,134,491855,0.0-134.0,,,,1140.28,,5,1,,,,,,,,,,,,,,,,,,,,Stimuli/Evan_Stimuli/Scissors.png,SCISSORS,FALSE,TRUE,1,49,,,,,,,,,,,,,,
,evan-run-trial,135,494983,0.0-135.0,,,,348.9899999,TRAIN OBSERVE,5,1,2,1,2,4,FALSE,1,10,10,10,Stimuli/Evan_Stimuli/Scissors.png,Stimuli/Evan_Stimuli/Girl.png,Stimuli/Evan_Stimuli/House.png,Stimuli/Evan_Stimuli/Zebra.png,49,1,1,1,10,4,,,,,,,,,,,,,,,,,,,,
,evan-run-trial,136,498168,0.0-136.0,,,,389.3300006,TRAIN OBSERVE,5,1,2,1,2,4,FALSE,0,10,10,10,Stimuli/Evan_Stimuli/Scissors.png,Stimuli/Evan_Stimuli/Girl.png,Stimuli/Evan_Stimuli/House.png,Stimuli/Evan_Stimuli/Zebra.png,49,1,1,2,10,4,,,,,,,,,,,,,,,,,,,,
,evan-info-quiz,137,499535,0.0-137.0,,,,862.4849999,,5,1,,,,,,,,,,,,,,,,,,,,Stimuli/Evan_Stimuli/Girl.png,GIRL,TRUE,TRUE,1,49,,,,,,,,,,,,,,
,evan-run-trial,138,503639,0.0-138.0,,,,1310.56,TRAIN OBSERVE,5,1,1,1,2,4,FALSE,1,10,10,10,Stimuli/Evan_Stimuli/Scissors.png,Stimuli/Evan_Stimuli/Girl.png,Stimuli/Evan_Stimuli/House.png,Stimuli/Evan_Stimuli/Zebra.png,49,1,1,1,10,4,,,,,,,,,,,,,,,,,,,,
,evan-run-trial,139,506859,0.0-139.0,,,,421.7699999,TRAIN OBSERVE,5,1,2,1,2,4,FALSE,1,10,10,10,Stimuli/Evan_Stimuli/Scissors.png,Stimuli/Evan_Stimuli/Girl.png,Stimuli/Evan_Stimuli/House.png,Stimuli/Evan_Stimuli/Zebra.png,49,1,1,1,10,4,,,,,,,,,,,,,,,,,,,,
,evan-run-trial,140,510011,0.0-140.0,,,,369.6949994,TRAIN OBSERVE,5,1,1,1,2,4,FALSE,1,10,10,10,Stimuli/Evan_Stimuli/Scissors.png,Stimuli/Evan_Stimuli/Girl.png,Stimuli/Evan_Stimuli/House.png,Stimuli/Evan_Stimuli/Zebra.png,49,1,1,1,10,4,,,,,,,,,,,,,,,,,,,,
,evan-info-quiz,141,511328,0.0-141.0,,,,811.5750002,,5,1,,,,,,,,,,,,,,,,,,,,Stimuli/Evan_Stimuli/Zebra.png,ZEBRA,TRUE,FALSE,1,49,,,,,,,,,,,,,,
,evan-run-trial,142,516435,0.0-142.0,,,,2331.755,TRAIN OBSERVE,5,1,1,1,2,4,FALSE,1,10,10,10,Stimuli/Evan_Stimuli/Scissors.png,Stimuli/Evan_Stimuli/Girl.png,Stimuli/Evan_Stimuli/House.png,Stimuli/Evan_Stimuli/Zebra.png,49,1,1,1,10,4,,,,,,,,,,,,,,,,,,,,
,evan-run-trial,143,519587,0.0-143.0,,,,361.4349999,TRAIN OBSERVE,5,1,1,1,2,4,FALSE,1,10,10,10,Stimuli/Evan_Stimuli/Scissors.png,Stimuli/Evan_Stimuli/Girl.png,Stimuli/Evan_Stimuli/House.png,Stimuli/Evan_Stimuli/Zebra.png,49,1,1,1,10,4,,,,,,,,,,,,,,,,,,,,
,evan-info-quiz,144,521102,0.0-144.0,,,,1010.335,,5,1,,,,,,,,,,,,,,,,,,,,Stimuli/Evan_Stimuli/Zebra.png,ZEBRA,TRUE,FALSE,1,51,,,,,,,,,,,,,,
,evan-run-trial,145,524206,0.0-145.0,,,,318.8299993,TRAIN OBSERVE,5,1,2,1,2,4,FALSE,0,10,10,10,Stimuli/Evan_Stimuli/Scissors.png,Stimuli/Evan_Stimuli/Girl.png,Stimuli/Evan_Stimuli/House.png,Stimuli/Evan_Stimuli/Zebra.png,49,1,1,2,10,4,,,,,,,,,,,,,,,,,,,,
,evan-run-trial,146,527377,0.0-146.0,,,,382.0850002,TRAIN OBSERVE,5,1,1,1,2,4,FALSE,1,10,10,10,Stimuli/Evan_Stimuli/Scissors.png,Stimuli/Evan_Stimuli/Girl.png,Stimuli/Evan_Stimuli/House.png,Stimuli/Evan_Stimuli/Zebra.png,49,1,1,1,10,4,,,,,,,,,,,,,,,,,,,,
,evan-display-text,147,528714,0.0-147.0,You'll now play the PEPPER slot machine.,"For each game, press 1 to play the machine.",Please pay attention! There will be checks.,1335.25,TRAIN INFO,5,1,,,,,,,,,,,,,,,,,,,,,,,,,,,,,,,,,,,,,,,
,evan-run-trial,148,531880,0.0-148.0,,,,370.6750004,TRAIN OBSERVE,5,1,2,1,2,4,FALSE,1,10,10,10,Stimuli/Evan_Stimuli/Scissors.png,Stimuli/Evan_Stimuli/Girl.png,Stimuli/Evan_Stimuli/House.png,Stimuli/Evan_Stimuli/Pepper.png,49,1,1,1,10,2,,,,,,,,,,,,,,,,,,,,
,evan-info-quiz,149,533167,0.0-149.0,,,,782.4500008,,5,1,,,,,,,,,,,,,,,,,,,,Stimuli/Evan_Stimuli/Pepper.png,PEPPER,TRUE,FALSE,1,50,,,,,,,,,,,,,,
,evan-run-trial,150,536235,0.0-150.0,,,,270.0499995,TRAIN OBSERVE,5,1,1,1,2,4,FALSE,0,10,10,10,Stimuli/Evan_Stimuli/Scissors.png,Stimuli/Evan_Stimuli/Girl.png,Stimuli/Evan_Stimuli/House.png,Stimuli/Evan_Stimuli/Pepper.png,49,1,1,2,10,2,,,,,,,,,,,,,,,,,,,,
,evan-info-quiz,151,537870,0.0-151.0,,,,1131.779999,,5,1,,,,,,,,,,,,,,,,,,,,Stimuli/Evan_Stimuli/Girl.png,GIRL,TRUE,TRUE,0,52,,,,,,,,,,,,,,
,evan-run-trial,152,541154,0.0-152.0,,,,493.8650001,TRAIN OBSERVE,5,1,2,1,2,4,FALSE,0,10,10,10,Stimuli/Evan_Stimuli/Scissors.png,Stimuli/Evan_Stimuli/Girl.png,Stimuli/Evan_Stimuli/House.png,Stimuli/Evan_Stimuli/Pepper.png,49,1,1,2,10,2,,,,,,,,,,,,,,,,,,,,
,evan-info-quiz,153,542815,0.0-153.0,,,,1156.23,,5,1,,,,,,,,,,,,,,,,,,,,Stimuli/Evan_Stimuli/Girl.png,GIRL,TRUE,TRUE,1,50,,,,,,,,,,,,,,
,evan-run-trial,154,545893,0.0-154.0,,,,316.7599998,TRAIN OBSERVE,5,1,2,1,2,4,FALSE,0,10,10,10,Stimuli/Evan_Stimuli/Scissors.png,Stimuli/Evan_Stimuli/Girl.png,Stimuli/Evan_Stimuli/House.png,Stimuli/Evan_Stimuli/Pepper.png,49,1,1,2,10,2,,,,,,,,,,,,,,,,,,,,
,evan-run-trial,155,548995,0.0-155.0,,,,327.3499999,TRAIN OBSERVE,5,1,1,1,2,4,FALSE,1,10,10,10,Stimuli/Evan_Stimuli/Scissors.png,Stimuli/Evan_Stimuli/Girl.png,Stimuli/Evan_Stimuli/House.png,Stimuli/Evan_Stimuli/Pepper.png,49,1,1,1,10,2,,,,,,,,,,,,,,,,,,,,
,evan-run-trial,156,552048,0.0-156.0,,,,249.9099998,TRAIN OBSERVE,5,1,2,1,2,4,FALSE,0,10,10,10,Stimuli/Evan_Stimuli/Scissors.png,Stimuli/Evan_Stimuli/Girl.png,Stimuli/Evan_Stimuli/House.png,Stimuli/Evan_Stimuli/Pepper.png,49,1,1,2,10,2,,,,,,,,,,,,,,,,,,,,
,evan-run-trial,157,555101,0.0-157.0,,,,252.7799997,TRAIN OBSERVE,5,1,1,1,2,4,FALSE,1,10,10,10,Stimuli/Evan_Stimuli/Scissors.png,Stimuli/Evan_Stimuli/Girl.png,Stimuli/Evan_Stimuli/House.png,Stimuli/Evan_Stimuli/Pepper.png,49,1,1,1,10,2,,,,,,,,,,,,,,,,,,,,
,evan-info-quiz,158,556319,0.0-158.0,,,,712.9199998,,5,1,,,,,,,,,,,,,,,,,,,,Stimuli/Evan_Stimuli/Scissors.png,SCISSORS,TRUE,TRUE,1,50,,,,,,,,,,,,,,
,evan-run-trial,159,559404,0.0-159.0,,,,284.8300003,TRAIN OBSERVE,5,1,2,1,2,4,FALSE,0,10,10,10,Stimuli/Evan_Stimuli/Scissors.png,Stimuli/Evan_Stimuli/Girl.png,Stimuli/Evan_Stimuli/House.png,Stimuli/Evan_Stimuli/Pepper.png,49,1,1,2,10,2,,,,,,,,,,,,,,,,,,,,
,evan-run-trial,160,562522,0.0-160.0,,,,319.8349997,TRAIN OBSERVE,5,1,2,1,2,4,FALSE,0,10,10,10,Stimuli/Evan_Stimuli/Scissors.png,Stimuli/Evan_Stimuli/Girl.png,Stimuli/Evan_Stimuli/House.png,Stimuli/Evan_Stimuli/Pepper.png,49,1,1,2,10,2,,,,,,,,,,,,,,,,,,,,
,evan-info-quiz,161,564448,0.0-161.0,,,,1420.395,,5,1,,,,,,,,,,,,,,,,,,,,Stimuli/Evan_Stimuli/Girl.png,GIRL,TRUE,TRUE,1,51,,,,,,,,,,,,,,
,evan-run-trial,162,567562,0.0-162.0,,,,331.8100004,TRAIN OBSERVE,5,1,1,1,2,4,FALSE,1,10,10,10,Stimuli/Evan_Stimuli/Scissors.png,Stimuli/Evan_Stimuli/Girl.png,Stimuli/Evan_Stimuli/House.png,Stimuli/Evan_Stimuli/Pepper.png,49,1,1,1,10,2,,,,,,,,,,,,,,,,,,,,
,evan-display-text,163,570138,0.0-163.0,You'll now make some choices between the PEPPER and the ZEBRA machines to earn points!,Press 1 to select the LEFT machine and 2 to select the RIGHT machine.,"Before each choice, you'll be shown the number of points for each banknote. Pay attention!",2574.825,TRAIN INFO,5,1,,,,,,,,,,,,,,,,,,,,,,,,,,,,,,,,,,,,,,,
,evan-two-stim-choice,164,577852,0.0-164.0,,,,669.4250004,TRAIN CHOICE,5,1,,,1,4,,,,10,0,Stimuli/Evan_Stimuli/Scissors.png,Stimuli/Evan_Stimuli/Girl.png,,,50,,,1,10,,,,,,,,0.4,0.8,2,2,Stimuli/Evan_Stimuli/Scissors.png,TRUE,2,4,GAIN,,,,,
,evan-two-stim-choice,165,582775,0.0-165.0,,,,null,REW TEST 1,5,1,,,1,1,,,,0,-10,Stimuli/Evan_Stimuli/Scissors.png,Stimuli/Evan_Stimuli/Girl.png,,,null,,,null,null,,,,,,,,0.2,0.4,null,null,,null,1,2,test,,,,,
,evan-reward-quiz,166,584575,0.0-166.0,,,,1295.15,,5,1,,,,,,,,,,,,,,,,,,,,,,,,0,50,,,,,,,,,,Stimuli/Evan_Stimuli/Scissors.png,0,SCISSORS,,
,evan-two-stim-choice,167,592165,0.0-167.0,,,,542.4250001,TRAIN CHOICE,5,1,,,1,4,,,,0,10,Stimuli/Evan_Stimuli/Scissors.png,Stimuli/Evan_Stimuli/Girl.png,,,50,,,2,10,,,,,,,,0.4,0.8,2,1,Stimuli/Evan_Stimuli/Girl.png,TRUE,2,4,GAIN,,,,,
,evan-two-stim-choice,168,599738,0.0-168.0,,,,492.8200003,TRAIN CHOICE,5,1,,,1,4,,,,0,-10,Stimuli/Evan_Stimuli/Scissors.png,Stimuli/Evan_Stimuli/Girl.png,,,49,,,1,0,,,,,,,,0.4,0.8,1,2,Stimuli/Evan_Stimuli/Scissors.png,TRUE,2,4,LOSS,,,,,
,evan-two-stim-choice,169,607228,0.0-169.0,,,,406.01,TRAIN CHOICE,5,1,,,1,4,,,,-10,0,Stimuli/Evan_Stimuli/Scissors.png,Stimuli/Evan_Stimuli/Girl.png,,,50,,,2,0,,,,,,,,0.4,0.8,2,1,Stimuli/Evan_Stimuli/Girl.png,TRUE,2,4,LOSS,,,,,
,evan-display-text,170,625786,0.0-170.0,"Great job! For the rest of the task, you'll just make choices between the slot machines.",,,18556.32,TRAIN INFO,,,,,,,,,,,,,,,,,,,,,,,,,,,,,,,,,,,,,,,,,
,evan-two-stim-choice,171,638038,0.0-171.0,,,,5198.655,TRAIN CHOICE,,,,,1,4,,,,0,10,Stimuli/Evan_Stimuli/Scissors.png,Stimuli/Evan_Stimuli/Girl.png,,,50,,,1,0,,,,,,,,0.6,0.8,2,1,Stimuli/Evan_Stimuli/Scissors.png,TRUE,3,4,GAIN,,,,,
,evan-two-stim-choice,172,647212,0.0-172.0,,,,2105.105,TRAIN CHOICE,,,,,1,4,,,,-10,0,Stimuli/Evan_Stimuli/Scissors.png,Stimuli/Evan_Stimuli/Girl.png,,,50,,,1,-10,,,,,,,,0.2,0.8,2,1,Stimuli/Evan_Stimuli/Scissors.png,TRUE,1,4,LOSS,,,,,
,evan-two-stim-choice,173,655370,0.0-173.0,,,,1091.08,TRAIN CHOICE,,,,,1,4,,,,0,10,Stimuli/Evan_Stimuli/Scissors.png,Stimuli/Evan_Stimuli/Girl.png,,,50,,,1,0,,,,,,,,0.4,0.8,2,1,Stimuli/Evan_Stimuli/Scissors.png,TRUE,2,4,GAIN,,,,,
,evan-two-stim-choice,174,665778,0.0-174.0,,,,3366.625,TRAIN CHOICE,,,,,1,4,,,,0,-10,Stimuli/Evan_Stimuli/Scissors.png,Stimuli/Evan_Stimuli/Girl.png,,,50,,,2,-10,,,,,,,,0.2,0.4,2,2,Stimuli/Evan_Stimuli/Girl.png,TRUE,1,2,LOSS,,,,,
,evan-two-stim-choice,175,675969,0.0-175.0,,,,3115.49,TRAIN CHOICE,,,,,1,4,,,,0,10,Stimuli/Evan_Stimuli/Scissors.png,Stimuli/Evan_Stimuli/Girl.png,,,50,,,1,0,,,,,,,,0.2,0.4,2,2,Stimuli/Evan_Stimuli/Scissors.png,FALSE,1,2,GAIN,,,,,
,evan-two-stim-choice,176,690448,0.0-176.0,,,,7436.969999,TRAIN CHOICE,,,,,1,4,,,,0,-10,Stimuli/Evan_Stimuli/Scissors.png,Stimuli/Evan_Stimuli/Girl.png,,,49,,,1,0,,,,,,,,0.4,0.6,1,2,Stimuli/Evan_Stimuli/Scissors.png,TRUE,2,3,LOSS,,,,,
,evan-two-stim-choice,177,702643,0.0-177.0,,,,5151.605,TRAIN CHOICE,,,,,1,4,,,,-10,0,Stimuli/Evan_Stimuli/Scissors.png,Stimuli/Evan_Stimuli/Girl.png,,,50,,,2,0,,,,,,,,0.4,0.6,2,1,Stimuli/Evan_Stimuli/Girl.png,TRUE,2,3,LOSS,,,,,
,evan-two-stim-choice,178,713235,0.0-178.0,,,,3533.845,TRAIN CHOICE,,,,,1,4,,,,-10,0,Stimuli/Evan_Stimuli/Scissors.png,Stimuli/Evan_Stimuli/Girl.png,,,50,,,2,0,,,,,,,,0.2,0.6,2,1,Stimuli/Evan_Stimuli/Girl.png,TRUE,1,3,LOSS,,,,,
,evan-two-stim-choice,179,720808,0.0-179.0,,,,508.5100001,TRAIN CHOICE,,,,,1,4,,,,10,0,Stimuli/Evan_Stimuli/Scissors.png,Stimuli/Evan_Stimuli/Girl.png,,,49,,,2,0,,,,,,,,0.2,0.8,1,1,Stimuli/Evan_Stimuli/Girl.png,FALSE,1,4,GAIN,,,,,
,evan-two-stim-choice,180,730582,0.0-180.0,,,,2711.399999,TRAIN CHOICE,,,,,1,4,,,,10,0,Stimuli/Evan_Stimuli/Scissors.png,Stimuli/Evan_Stimuli/Girl.png,,,50,,,1,10,,,,,,,,0.6,0.8,2,2,Stimuli/Evan_Stimuli/Scissors.png,TRUE,3,4,GAIN,,,,,
,evan-two-stim-choice,181,741059,0.0-181.0,,,,3398.83,TRAIN CHOICE,,,,,1,4,,,,10,0,Stimuli/Evan_Stimuli/Scissors.png,Stimuli/Evan_Stimuli/Girl.png,,,50,,,2,0,,,,,,,,0.2,0.6,2,2,Stimuli/Evan_Stimuli/Girl.png,TRUE,1,3,GAIN,,,,,
,evan-two-stim-choice,182,748698,0.0-182.0,,,,572.1650003,TRAIN CHOICE,,,,,1,4,,,,10,0,Stimuli/Evan_Stimuli/Scissors.png,Stimuli/Evan_Stimuli/Girl.png,,,50,,,1,10,,,,,,,,0.4,0.8,2,2,Stimuli/Evan_Stimuli/Scissors.png,TRUE,2,4,GAIN,,,,,
,evan-two-stim-choice,183,758507,0.0-183.0,,,,2741.920001,TRAIN CHOICE,,,,,1,4,,,,0,-10,Stimuli/Evan_Stimuli/Scissors.png,Stimuli/Evan_Stimuli/Girl.png,,,49,,,2,-10,,,,,,,,0.4,0.6,1,2,Stimuli/Evan_Stimuli/Girl.png,TRUE,2,3,LOSS,,,,,
,evan-two-stim-choice,184,766881,0.0-184.0,,,,1348.054999,TRAIN CHOICE,,,,,1,4,,,,0,10,Stimuli/Evan_Stimuli/Scissors.png,Stimuli/Evan_Stimuli/Girl.png,,,50,,,2,10,,,,,,,,0.4,0.8,2,1,Stimuli/Evan_Stimuli/Girl.png,TRUE,2,4,GAIN,,,,,
,evan-two-stim-choice,185,775889,0.0-185.0,,,,1968.12,TRAIN CHOICE,,,,,1,4,,,,10,0,Stimuli/Evan_Stimuli/Scissors.png,Stimuli/Evan_Stimuli/Girl.png,,,50,,,1,10,,,,,,,,0.6,0.8,2,2,Stimuli/Evan_Stimuli/Scissors.png,TRUE,3,4,GAIN,,,,,
,evan-two-stim-choice,186,785112,0.0-186.0,,,,2158.33,TRAIN CHOICE,,,,,1,4,,,,-10,0,Stimuli/Evan_Stimuli/Scissors.png,Stimuli/Evan_Stimuli/Girl.png,,,50,,,2,0,,,,,,,,0.4,0.6,2,1,Stimuli/Evan_Stimuli/Girl.png,TRUE,2,3,LOSS,,,,,
,evan-two-stim-choice,187,794071,0.0-187.0,,,,1910.165,TRAIN CHOICE,,,,,1,4,,,,0,10,Stimuli/Evan_Stimuli/Scissors.png,Stimuli/Evan_Stimuli/Girl.png,,,50,,,2,10,,,,,,,,0.2,0.4,2,2,Stimuli/Evan_Stimuli/Girl.png,FALSE,1,2,GAIN,,,,,
,evan-two-stim-choice,188,803561,0.0-188.0,,,,2409.075,TRAIN CHOICE,,,,,1,4,,,,0,10,Stimuli/Evan_Stimuli/Scissors.png,Stimuli/Evan_Stimuli/Girl.png,,,50,,,1,0,,,,,,,,0.2,0.8,2,1,Stimuli/Evan_Stimuli/Scissors.png,TRUE,1,4,GAIN,,,,,
,evan-two-stim-choice,189,819742,0.0-189.0,,,,9109.075001,TRAIN CHOICE,,,,,1,4,,,,-10,0,Stimuli/Evan_Stimuli/Scissors.png,Stimuli/Evan_Stimuli/Girl.png,,,50,,,2,0,,,,,,,,0.6,0.8,2,1,Stimuli/Evan_Stimuli/Girl.png,TRUE,3,4,LOSS,,,,,
,evan-two-stim-choice,190,829467,0.0-190.0,,,,2657.055,TRAIN CHOICE,,,,,1,4,,,,0,-10,Stimuli/Evan_Stimuli/Scissors.png,Stimuli/Evan_Stimuli/Girl.png,,,49,,,2,-10,,,,,,,,0.2,0.4,1,2,Stimuli/Evan_Stimuli/Girl.png,TRUE,1,2,LOSS,,,,,
,evan-two-stim-choice,191,840959,0.0-191.0,,,,4420.125,TRAIN CHOICE,,,,,1,4,,,,-10,0,Stimuli/Evan_Stimuli/Scissors.png,Stimuli/Evan_Stimuli/Girl.png,,,50,,,2,0,,,,,,,,0.2,0.6,2,1,Stimuli/Evan_Stimuli/Girl.png,TRUE,1,3,LOSS,,,,,
,evan-two-stim-choice,192,848884,0.0-192.0,,,,864.5599997,TRAIN CHOICE,,,,,1,4,,,,0,-10,Stimuli/Evan_Stimuli/Scissors.png,Stimuli/Evan_Stimuli/Girl.png,,,49,,,2,-10,,,,,,,,0.4,0.8,1,2,Stimuli/Evan_Stimuli/Girl.png,TRUE,2,4,LOSS,,,,,
,evan-two-stim-choice,193,858276,0.0-193.0,,,,2346.975001,TRAIN CHOICE,,,,,1,4,,,,0,-10,Stimuli/Evan_Stimuli/Scissors.png,Stimuli/Evan_Stimuli/Girl.png,,,50,,,2,-10,,,,,,,,0.2,0.6,2,1,Stimuli/Evan_Stimuli/Girl.png,FALSE,1,3,LOSS,,,,,
,evan-two-stim-choice,194,867366,0.0-194.0,,,,2027.04,TRAIN CHOICE,,,,,1,4,,,,10,0,Stimuli/Evan_Stimuli/Scissors.png,Stimuli/Evan_Stimuli/Girl.png,,,49,,,1,10,,,,,,,,0.2,0.8,1,2,Stimuli/Evan_Stimuli/Scissors.png,TRUE,1,4,GAIN,,,,,
,evan-two-stim-choice,195,876458,0.0-195.0,,,,2024.285,TRAIN CHOICE,,,,,1,4,,,,-10,0,Stimuli/Evan_Stimuli/Scissors.png,Stimuli/Evan_Stimuli/Girl.png,,,49,,,2,0,,,,,,,,0.2,0.6,1,1,Stimuli/Evan_Stimuli/Girl.png,TRUE,1,3,LOSS,,,,,
,evan-two-stim-choice,196,884297,0.0-196.0,,,,757.7149998,TRAIN CHOICE,,,,,1,4,,,,-10,0,Stimuli/Evan_Stimuli/Scissors.png,Stimuli/Evan_Stimuli/Girl.png,,,50,,,2,0,,,,,,,,0.4,0.6,2,1,Stimuli/Evan_Stimuli/Girl.png,TRUE,2,3,LOSS,,,,,
,evan-two-stim-choice,197,894506,0.0-197.0,,,,3142.56,TRAIN CHOICE,,,,,1,4,,,,10,0,Stimuli/Evan_Stimuli/Scissors.png,Stimuli/Evan_Stimuli/Girl.png,,,50,,,1,10,,,,,,,,0.2,0.4,2,2,Stimuli/Evan_Stimuli/Scissors.png,TRUE,1,2,GAIN,,,,,
,evan-two-stim-choice,198,904097,0.0-198.0,,,,2500.670001,TRAIN CHOICE,,,,,1,4,,,,0,10,Stimuli/Evan_Stimuli/Scissors.png,Stimuli/Evan_Stimuli/Girl.png,,,50,,,2,10,,,,,,,,0.2,0.8,2,1,Stimuli/Evan_Stimuli/Girl.png,TRUE,1,4,GAIN,,,,,
,evan-two-stim-choice,199,912271,0.0-199.0,,,,1085.155,TRAIN CHOICE,,,,,1,4,,,,10,0,Stimuli/Evan_Stimuli/Scissors.png,Stimuli/Evan_Stimuli/Girl.png,,,50,,,1,10,,,,,,,,0.6,0.8,2,2,Stimuli/Evan_Stimuli/Scissors.png,TRUE,3,4,GAIN,,,,,
,evan-two-stim-choice,200,922346,0.0-200.0,,,,3007.625001,TRAIN CHOICE,,,,,1,4,,,,0,10,Stimuli/Evan_Stimuli/Scissors.png,Stimuli/Evan_Stimuli/Girl.png,,,49,,,2,10,,,,,,,,0.2,0.4,1,1,Stimuli/Evan_Stimuli/Girl.png,TRUE,1,2,GAIN,,,,,
,evan-two-stim-choice,201,931755,0.0-201.0,,,,2338.85,TRAIN CHOICE,,,,,1,4,,,,0,10,Stimuli/Evan_Stimuli/Scissors.png,Stimuli/Evan_Stimuli/Girl.png,,,50,,,1,0,,,,,,,,0.6,0.8,2,1,Stimuli/Evan_Stimuli/Scissors.png,TRUE,3,4,GAIN,,,,,
,evan-two-stim-choice,202,940711,0.0-202.0,,,,1891.23,TRAIN CHOICE,,,,,1,4,,,,-10,0,Stimuli/Evan_Stimuli/Scissors.png,Stimuli/Evan_Stimuli/Girl.png,,,49,,,1,-10,,,,,,,,0.4,0.8,1,1,Stimuli/Evan_Stimuli/Scissors.png,TRUE,2,4,LOSS,,,,,
,evan-two-stim-choice,203,951237,0.0-203.0,,,,3479.765,TRAIN CHOICE,,,,,1,4,,,,0,-10,Stimuli/Evan_Stimuli/Scissors.png,Stimuli/Evan_Stimuli/Girl.png,,,49,,,1,0,,,,,,,,0.2,0.6,1,2,Stimuli/Evan_Stimuli/Scissors.png,TRUE,1,3,LOSS,,,,,
,evan-two-stim-choice,204,961829,0.0-204.0,,,,3529.02,TRAIN CHOICE,,,,,1,4,,,,10,0,Stimuli/Evan_Stimuli/Scissors.png,Stimuli/Evan_Stimuli/Girl.png,,,49,,,1,10,,,,,,,,0.2,0.8,1,2,Stimuli/Evan_Stimuli/Scissors.png,TRUE,1,4,GAIN,,,,,
,evan-two-stim-choice,205,972006,0.0-205.0,,,,3112.790001,TRAIN CHOICE,,,,,1,4,,,,0,-10,Stimuli/Evan_Stimuli/Scissors.png,Stimuli/Evan_Stimuli/Girl.png,,,49,,,1,0,,,,,,,,0.4,0.6,1,2,Stimuli/Evan_Stimuli/Scissors.png,TRUE,2,3,LOSS,,,,,
,evan-two-stim-choice,206,981229,0.0-206.0,,,,2137.730001,TRAIN CHOICE,,,,,1,4,,,,10,0,Stimuli/Evan_Stimuli/Scissors.png,Stimuli/Evan_Stimuli/Girl.png,,,50,,,1,10,,,,,,,,0.4,0.8,2,2,Stimuli/Evan_Stimuli/Scissors.png,TRUE,2,4,GAIN,,,,,
,evan-two-stim-choice,207,990055,0.0-207.0,,,,1746.385001,TRAIN CHOICE,,,,,1,4,,,,0,10,Stimuli/Evan_Stimuli/Scissors.png,Stimuli/Evan_Stimuli/Girl.png,,,50,,,2,10,,,,,,,,0.2,0.4,2,1,Stimuli/Evan_Stimuli/Girl.png,TRUE,1,2,GAIN,,,,,
,evan-two-stim-choice,208,1000197,0.0-208.0,,,,3080.695,TRAIN CHOICE,,,,,1,4,,,,0,10,Stimuli/Evan_Stimuli/Scissors.png,Stimuli/Evan_Stimuli/Girl.png,,,50,,,2,10,,,,,,,,0.4,0.6,2,1,Stimuli/Evan_Stimuli/Girl.png,TRUE,2,3,GAIN,,,,,
,evan-two-stim-choice,209,1008702,0.0-209.0,,,,1450.53,TRAIN CHOICE,,,,,1,4,,,,10,0,Stimuli/Evan_Stimuli/Scissors.png,Stimuli/Evan_Stimuli/Girl.png,,,50,,,2,0,,,,,,,,0.2,0.8,2,2,Stimuli/Evan_Stimuli/Girl.png,TRUE,1,4,GAIN,,,,,
,evan-two-stim-choice,210,1016561,0.0-210.0,,,,798.2649999,TRAIN CHOICE,,,,,1,4,,,,0,-10,Stimuli/Evan_Stimuli/Scissors.png,Stimuli/Evan_Stimuli/Girl.png,,,49,,,2,-10,,,,,,,,0.6,0.8,1,2,Stimuli/Evan_Stimuli/Girl.png,TRUE,3,4,LOSS,,,,,
,evan-two-stim-choice,211,1025733,0.0-211.0,,,,2111.455,TRAIN CHOICE,,,,,1,4,,,,10,0,Stimuli/Evan_Stimuli/Scissors.png,Stimuli/Evan_Stimuli/Girl.png,,,49,,,2,0,,,,,,,,0.2,0.4,1,2,Stimuli/Evan_Stimuli/Girl.png,TRUE,1,2,GAIN,,,,,
,evan-two-stim-choice,212,1037895,0.0-212.0,,,,5096.455,TRAIN CHOICE,,,,,1,4,,,,-10,0,Stimuli/Evan_Stimuli/Scissors.png,Stimuli/Evan_Stimuli/Girl.png,,,49,,,1,-10,,,,,,,,0.2,0.6,1,2,Stimuli/Evan_Stimuli/Scissors.png,FALSE,1,3,LOSS,,,,,
,evan-two-stim-choice,213,1049487,0.0-213.0,,,,4521.635,TRAIN CHOICE,,,,,1,4,,,,0,10,Stimuli/Evan_Stimuli/Scissors.png,Stimuli/Evan_Stimuli/Girl.png,,,50,,,2,10,,,,,,,,0.4,0.8,2,1,Stimuli/Evan_Stimuli/Girl.png,TRUE,2,4,GAIN,,,,,
,evan-two-stim-choice,214,1057911,0.0-214.0,,,,1357.47,TRAIN CHOICE,,,,,1,4,,,,0,-10,Stimuli/Evan_Stimuli/Scissors.png,Stimuli/Evan_Stimuli/Girl.png,,,50,,,1,0,,,,,,,,0.4,0.8,2,2,Stimuli/Evan_Stimuli/Scissors.png,TRUE,2,4,LOSS,,,,,
,evan-two-stim-choice,215,1069656,0.0-215.0,,,,4679.699999,TRAIN CHOICE,,,,,1,4,,,,10,0,Stimuli/Evan_Stimuli/Scissors.png,Stimuli/Evan_Stimuli/Girl.png,,,50,,,1,10,,,,,,,,0.2,0.6,2,2,Stimuli/Evan_Stimuli/Scissors.png,TRUE,1,3,GAIN,,,,,
,evan-two-stim-choice,216,1077980,0.0-216.0,,,,1257.375,TRAIN CHOICE,,,,,1,4,,,,10,0,Stimuli/Evan_Stimuli/Scissors.png,Stimuli/Evan_Stimuli/Girl.png,,,49,,,2,0,,,,,,,,0.4,0.6,1,2,Stimuli/Evan_Stimuli/Girl.png,TRUE,2,3,GAIN,,,,,
,evan-two-stim-choice,217,1088672,0.0-217.0,,,,3621.02,TRAIN CHOICE,,,,,1,4,,,,0,10,Stimuli/Evan_Stimuli/Scissors.png,Stimuli/Evan_Stimuli/Girl.png,,,50,,,2,10,,,,,,,,0.6,0.8,2,1,Stimuli/Evan_Stimuli/Girl.png,TRUE,3,4,GAIN,,,,,
,evan-two-stim-choice,218,1097179,0.0-218.0,,,,1455.385,TRAIN CHOICE,,,,,1,4,,,,0,10,Stimuli/Evan_Stimuli/Scissors.png,Stimuli/Evan_Stimuli/Girl.png,,,49,,,2,10,,,,,,,,0.2,0.8,1,1,Stimuli/Evan_Stimuli/Girl.png,TRUE,1,4,GAIN,,,,,
,evan-two-stim-choice,219,1105869,0.0-219.0,,,,1637.615,TRAIN CHOICE,,,,,1,4,,,,-10,0,Stimuli/Evan_Stimuli/Scissors.png,Stimuli/Evan_Stimuli/Girl.png,,,50,,,2,0,,,,,,,,0.2,0.4,2,1,Stimuli/Evan_Stimuli/Girl.png,TRUE,1,2,LOSS,,,,,
,evan-two-stim-choice,220,1114944,0.0-220.0,,,,2033.919999,TRAIN CHOICE,,,,,1,4,,,,0,10,Stimuli/Evan_Stimuli/Scissors.png,Stimuli/Evan_Stimuli/Girl.png,,,50,,,1,0,,,,,,,,0.6,0.8,2,1,Stimuli/Evan_Stimuli/Scissors.png,TRUE,3,4,GAIN,,,,,
,evan-two-stim-choice,221,1125003,0.0-221.0,,,,2992.05,TRAIN CHOICE,,,,,1,4,,,,0,10,Stimuli/Evan_Stimuli/Scissors.png,Stimuli/Evan_Stimuli/Girl.png,,,49,,,1,0,,,,,,,,0.4,0.6,1,1,Stimuli/Evan_Stimuli/Scissors.png,TRUE,2,3,GAIN,,,,,
,evan-two-stim-choice,222,1133693,0.0-222.0,,,,1620.955,TRAIN CHOICE,,,,,1,4,,,,-10,0,Stimuli/Evan_Stimuli/Scissors.png,Stimuli/Evan_Stimuli/Girl.png,,,50,,,2,0,,,,,,,,0.2,0.8,2,1,Stimuli/Evan_Stimuli/Girl.png,TRUE,1,4,LOSS,,,,,
,evan-two-stim-choice,223,1143651,0.0-223.0,,,,2898.805,TRAIN CHOICE,,,,,1,4,,,,10,0,Stimuli/Evan_Stimuli/Scissors.png,Stimuli/Evan_Stimuli/Girl.png,,,49,,,1,10,,,,,,,,0.2,0.8,1,2,Stimuli/Evan_Stimuli/Scissors.png,TRUE,1,4,GAIN,,,,,
,evan-two-stim-choice,224,1153860,0.0-224.0,,,,3164.2,TRAIN CHOICE,,,,,1,4,,,,10,0,Stimuli/Evan_Stimuli/Scissors.png,Stimuli/Evan_Stimuli/Girl.png,,,50,,,1,10,,,,,,,,0.2,0.4,2,2,Stimuli/Evan_Stimuli/Scissors.png,TRUE,1,2,GAIN,,,,,
,evan-two-stim-choice,225,1164387,0.0-225.0,,,,3483.144999,TRAIN CHOICE,,,,,1,4,,,,10,0,Stimuli/Evan_Stimuli/Scissors.png,Stimuli/Evan_Stimuli/Girl.png,,,49,,,1,10,,,,,,,,0.2,0.6,1,2,Stimuli/Evan_Stimuli/Scissors.png,TRUE,1,3,GAIN,,,,,
,evan-two-stim-choice,226,1172560,0.0-226.0,,,,1117.254999,TRAIN CHOICE,,,,,1,4,,,,0,-10,Stimuli/Evan_Stimuli/Scissors.png,Stimuli/Evan_Stimuli/Girl.png,,,50,,,1,0,,,,,,,,0.6,0.8,2,2,Stimuli/Evan_Stimuli/Scissors.png,TRUE,3,4,LOSS,,,,,
,evan-two-stim-choice,227,1181717,0.0-227.0,,,,2095.535,TRAIN CHOICE,,,,,1,4,,,,0,10,Stimuli/Evan_Stimuli/Scissors.png,Stimuli/Evan_Stimuli/Girl.png,,,50,,,2,10,,,,,,,,0.2,0.6,2,1,Stimuli/Evan_Stimuli/Girl.png,TRUE,1,3,GAIN,,,,,
,evan-two-stim-choice,228,1192093,0.0-228.0,,,,3307.025,TRAIN CHOICE,,,,,1,4,,,,10,0,Stimuli/Evan_Stimuli/Scissors.png,Stimuli/Evan_Stimuli/Girl.png,,,49,,,1,10,,,,,,,,0.4,0.6,1,2,Stimuli/Evan_Stimuli/Scissors.png,TRUE,2,3,GAIN,,,,,
,evan-two-stim-choice,229,1200817,0.0-229.0,,,,1649.944999,TRAIN CHOICE,,,,,1,4,,,,-10,0,Stimuli/Evan_Stimuli/Scissors.png,Stimuli/Evan_Stimuli/Girl.png,,,50,,,2,0,,,,,,,,0.4,0.8,2,1,Stimuli/Evan_Stimuli/Girl.png,TRUE,2,4,LOSS,,,,,
,evan-two-stim-choice,230,1208707,0.0-230.0,,,,830.445,TRAIN CHOICE,,,,,1,4,,,,0,-10,Stimuli/Evan_Stimuli/Scissors.png,Stimuli/Evan_Stimuli/Girl.png,,,49,,,1,0,,,,,,,,0.4,0.8,1,2,Stimuli/Evan_Stimuli/Scissors.png,TRUE,2,4,LOSS,,,,,
,html-button-response,231,1213313,0.0-231.0,,,,4605,,,,,,,,,,,,,,,,,,,,,,,,,,,,,,,,,,,,,,,,,You have finished the task. Thank you for your contribution to science! You should receive your payment and bonus shortly.,0
