success,trial_type,trial_index,time_elapsed,internal_node_id,subject,date,time,line_1,line_2,line_3,rt,phase,comp_idx,comp_rep,stim_pos_y,stim_pos_x,first_stage,last_stage,show_money_val,p_o1,safe_val,o1_val,o2_val,o1_image,o2_image,safe_image,choice_image,key_press_num,choice,accept,outcome_reached,points_received,choice_number,correct_image,correct_name,use_image,use_outcome,correct,key,p_o1_c1,p_o1_c2,chosen_side,chosen_machine,outcome_im,correct_response,C1,C2,GLtype,outcome_image,outcome_val,outcome_name,practice_quiz_pct,practice_bonus_trial_points_avg,test_quiz_pct,test_bonus_trial_points_avg,stimulus,button_pressed
TRUE,fullscreen,0,6251,0.0-0.0,1,aug_19_2019,1716,,,,,,,,,,,,,,,,,,,,,,,,,,,,,,,,,,,,,,,,,,,,,,,,,,
,evan-display-text,1,8409,0.0-1.0,1,aug_19_2019,1716,You'll now play the PEPPER slot machine.,"For each game, press 1 to play the machine.",Please pay attention! There will be checks.,2144.125,TRAIN INFO,6,1,,,,,,,,,,,,,,,,,,,,,,,,,,,,,,,,,,,,,,,,,,,
,evan-run-trial,2,11356,0.0-2.0,1,aug_19_2019,1716,,,,612.63,TRAIN OBSERVE,6,1,1,1,2,4,FALSE,0,10,10,10,Stimuli/Evan_Stimuli/Scissors.png,Stimuli/Evan_Stimuli/Girl.png,Stimuli/Evan_Stimuli/House.png,Stimuli/Evan_Stimuli/Pepper.png,49,1,1,2,10,3,,,,,,,,,,,,,,,,,,,,,,,,
,evan-run-trial,3,14141,0.0-3.0,1,aug_19_2019,1716,,,,456.115,TRAIN OBSERVE,6,1,1,1,2,4,FALSE,1,10,10,10,Stimuli/Evan_Stimuli/Scissors.png,Stimuli/Evan_Stimuli/Girl.png,Stimuli/Evan_Stimuli/House.png,Stimuli/Evan_Stimuli/Pepper.png,49,1,1,1,10,3,,,,,,,,,,,,,,,,,,,,,,,,
,evan-run-trial,4,16825,0.0-4.0,1,aug_19_2019,1716,,,,359.37,TRAIN OBSERVE,6,1,1,1,2,4,FALSE,1,10,10,10,Stimuli/Evan_Stimuli/Scissors.png,Stimuli/Evan_Stimuli/Girl.png,Stimuli/Evan_Stimuli/House.png,Stimuli/Evan_Stimuli/Pepper.png,49,1,1,1,10,3,,,,,,,,,,,,,,,,,,,,,,,,
,evan-run-trial,5,19578,0.0-5.0,1,aug_19_2019,1716,,,,424.84,TRAIN OBSERVE,6,1,1,1,2,4,FALSE,1,10,10,10,Stimuli/Evan_Stimuli/Scissors.png,Stimuli/Evan_Stimuli/Girl.png,Stimuli/Evan_Stimuli/House.png,Stimuli/Evan_Stimuli/Pepper.png,49,1,1,1,10,3,,,,,,,,,,,,,,,,,,,,,,,,
,evan-run-trial,6,22279,0.0-6.0,1,aug_19_2019,1716,,,,362.43,TRAIN OBSERVE,6,1,1,1,2,4,FALSE,0,10,10,10,Stimuli/Evan_Stimuli/Scissors.png,Stimuli/Evan_Stimuli/Girl.png,Stimuli/Evan_Stimuli/House.png,Stimuli/Evan_Stimuli/Pepper.png,49,1,1,2,10,3,,,,,,,,,,,,,,,,,,,,,,,,
,evan-info-quiz,7,23487,0.0-7.0,1,aug_19_2019,1716,,,,697.95,,6,1,,,,,,,,,,,,,,,,,,,,Stimuli/Evan_Stimuli/Girl.png,GIRL,TRUE,TRUE,0,50,,,,,,,,,,,,,,,,,,
,evan-run-trial,8,26183,0.0-8.0,1,aug_19_2019,1716,,,,372.5849999,TRAIN OBSERVE,6,1,1,1,2,4,FALSE,0,10,10,10,Stimuli/Evan_Stimuli/Scissors.png,Stimuli/Evan_Stimuli/Girl.png,Stimuli/Evan_Stimuli/House.png,Stimuli/Evan_Stimuli/Pepper.png,49,1,1,2,10,3,,,,,,,,,,,,,,,,,,,,,,,,
,evan-run-trial,9,28902,0.0-9.0,1,aug_19_2019,1716,,,,381.635,TRAIN OBSERVE,6,1,1,1,2,4,FALSE,1,10,10,10,Stimuli/Evan_Stimuli/Scissors.png,Stimuli/Evan_Stimuli/Girl.png,Stimuli/Evan_Stimuli/House.png,Stimuli/Evan_Stimuli/Pepper.png,49,1,1,1,10,3,,,,,,,,,,,,,,,,,,,,,,,,
,evan-run-trial,10,31604,0.0-10.0,1,aug_19_2019,1716,,,,365.47,TRAIN OBSERVE,6,1,1,1,2,4,FALSE,1,10,10,10,Stimuli/Evan_Stimuli/Scissors.png,Stimuli/Evan_Stimuli/Girl.png,Stimuli/Evan_Stimuli/House.png,Stimuli/Evan_Stimuli/Pepper.png,49,1,1,1,10,3,,,,,,,,,,,,,,,,,,,,,,,,
,evan-run-trial,11,34323,0.0-11.0,1,aug_19_2019,1716,,,,386.2,TRAIN OBSERVE,6,1,1,1,2,4,FALSE,1,10,10,10,Stimuli/Evan_Stimuli/Scissors.png,Stimuli/Evan_Stimuli/Girl.png,Stimuli/Evan_Stimuli/House.png,Stimuli/Evan_Stimuli/Pepper.png,49,1,1,1,10,3,,,,,,,,,,,,,,,,,,,,,,,,
,evan-run-trial,12,36993,0.0-12.0,1,aug_19_2019,1716,,,,334.425,TRAIN OBSERVE,6,1,1,1,2,4,FALSE,0,10,10,10,Stimuli/Evan_Stimuli/Scissors.png,Stimuli/Evan_Stimuli/Girl.png,Stimuli/Evan_Stimuli/House.png,Stimuli/Evan_Stimuli/Pepper.png,49,1,1,2,10,3,,,,,,,,,,,,,,,,,,,,,,,,
,evan-display-text,13,37832,0.0-13.0,1,aug_19_2019,1716,You'll now play the BUTTERFLY slot machine.,"For each game, press 1 to play the machine.",Please pay attention! There will be checks.,837.4,TRAIN INFO,6,1,,,,,,,,,,,,,,,,,,,,,,,,,,,,,,,,,,,,,,,,,,,
,evan-run-trial,14,40662,0.0-14.0,1,aug_19_2019,1716,,,,492.555,TRAIN OBSERVE,6,1,1,1,2,4,FALSE,1,10,10,10,Stimuli/Evan_Stimuli/Scissors.png,Stimuli/Evan_Stimuli/Girl.png,Stimuli/Evan_Stimuli/House.png,Stimuli/Evan_Stimuli/Butterfly.png,49,1,1,1,10,4,,,,,,,,,,,,,,,,,,,,,,,,
,evan-run-trial,15,43498,0.0-15.0,1,aug_19_2019,1716,,,,510.36,TRAIN OBSERVE,6,1,1,1,2,4,FALSE,1,10,10,10,Stimuli/Evan_Stimuli/Scissors.png,Stimuli/Evan_Stimuli/Girl.png,Stimuli/Evan_Stimuli/House.png,Stimuli/Evan_Stimuli/Butterfly.png,49,1,1,1,10,4,,,,,,,,,,,,,,,,,,,,,,,,
,evan-info-quiz,16,44780,0.0-16.0,1,aug_19_2019,1716,,,,777.73,,6,1,,,,,,,,,,,,,,,,,,,,Stimuli/Evan_Stimuli/Butterfly.png,BUTTERFLY,TRUE,FALSE,1,50,,,,,,,,,,,,,,,,,,
,evan-run-trial,17,47485,0.0-17.0,1,aug_19_2019,1716,,,,375.005,TRAIN OBSERVE,6,1,1,1,2,4,FALSE,1,10,10,10,Stimuli/Evan_Stimuli/Scissors.png,Stimuli/Evan_Stimuli/Girl.png,Stimuli/Evan_Stimuli/House.png,Stimuli/Evan_Stimuli/Butterfly.png,49,1,1,1,10,4,,,,,,,,,,,,,,,,,,,,,,,,
,evan-run-trial,18,50120,0.0-18.0,1,aug_19_2019,1716,,,,295.805,TRAIN OBSERVE,6,1,1,1,2,4,FALSE,1,10,10,10,Stimuli/Evan_Stimuli/Scissors.png,Stimuli/Evan_Stimuli/Girl.png,Stimuli/Evan_Stimuli/House.png,Stimuli/Evan_Stimuli/Butterfly.png,49,1,1,1,10,4,,,,,,,,,,,,,,,,,,,,,,,,
,evan-run-trial,19,52772,0.0-19.0,1,aug_19_2019,1716,,,,316.025,TRAIN OBSERVE,6,1,1,1,2,4,FALSE,1,10,10,10,Stimuli/Evan_Stimuli/Scissors.png,Stimuli/Evan_Stimuli/Girl.png,Stimuli/Evan_Stimuli/House.png,Stimuli/Evan_Stimuli/Butterfly.png,49,1,1,1,10,4,,,,,,,,,,,,,,,,,,,,,,,,
,evan-info-quiz,20,53997,0.0-20.0,1,aug_19_2019,1716,,,,717.465,,6,1,,,,,,,,,,,,,,,,,,,,Stimuli/Evan_Stimuli/Scissors.png,SCISSORS,FALSE,TRUE,1,50,,,,,,,,,,,,,,,,,,
,evan-run-trial,21,56692,0.0-21.0,1,aug_19_2019,1716,,,,359.77,TRAIN OBSERVE,6,1,1,1,2,4,FALSE,0,10,10,10,Stimuli/Evan_Stimuli/Scissors.png,Stimuli/Evan_Stimuli/Girl.png,Stimuli/Evan_Stimuli/House.png,Stimuli/Evan_Stimuli/Butterfly.png,49,1,1,2,10,4,,,,,,,,,,,,,,,,,,,,,,,,
,evan-info-quiz,22,57983,0.0-22.0,1,aug_19_2019,1716,,,,784.525,,6,1,,,,,,,,,,,,,,,,,,,,Stimuli/Evan_Stimuli/Girl.png,GIRL,FALSE,TRUE,1,49,,,,,,,,,,,,,,,,,,
,evan-run-trial,23,60679,0.0-23.0,1,aug_19_2019,1716,,,,358.355,TRAIN OBSERVE,6,1,1,1,2,4,FALSE,1,10,10,10,Stimuli/Evan_Stimuli/Scissors.png,Stimuli/Evan_Stimuli/Girl.png,Stimuli/Evan_Stimuli/House.png,Stimuli/Evan_Stimuli/Butterfly.png,49,1,1,1,10,4,,,,,,,,,,,,,,,,,,,,,,,,
,evan-run-trial,24,63365,0.0-24.0,1,aug_19_2019,1716,,,,348.95,TRAIN OBSERVE,6,1,1,1,2,4,FALSE,1,10,10,10,Stimuli/Evan_Stimuli/Scissors.png,Stimuli/Evan_Stimuli/Girl.png,Stimuli/Evan_Stimuli/House.png,Stimuli/Evan_Stimuli/Butterfly.png,49,1,1,1,10,4,,,,,,,,,,,,,,,,,,,,,,,,
,evan-run-trial,25,66035,0.0-25.0,1,aug_19_2019,1716,,,,336.305,TRAIN OBSERVE,6,1,1,1,2,4,FALSE,1,10,10,10,Stimuli/Evan_Stimuli/Scissors.png,Stimuli/Evan_Stimuli/Girl.png,Stimuli/Evan_Stimuli/House.png,Stimuli/Evan_Stimuli/Butterfly.png,49,1,1,1,10,4,,,,,,,,,,,,,,,,,,,,,,,,
,evan-run-trial,26,68787,0.0-26.0,1,aug_19_2019,1716,,,,418.055,TRAIN OBSERVE,6,1,1,1,2,4,FALSE,0,10,10,10,Stimuli/Evan_Stimuli/Scissors.png,Stimuli/Evan_Stimuli/Girl.png,Stimuli/Evan_Stimuli/House.png,Stimuli/Evan_Stimuli/Butterfly.png,49,1,1,2,10,4,,,,,,,,,,,,,,,,,,,,,,,,
,evan-display-text,27,69992,0.0-27.0,1,aug_19_2019,1716,You'll now make some choices between the PEPPER and the BUTTERFLY machines to earn points!,Press 1 to select the LEFT machine and 2 to select the RIGHT machine.,"Before each choice, you'll be shown the number of points for each banknote. Pay attention!",1203.165,TRAIN INFO,6,1,,,,,,,,,,,,,,,,,,,,,,,,,,,,,,,,,,,,,,,,,,,
,evan-two-stim-choice,28,77210,0.0-28.0,1,aug_19_2019,1716,,,,523.935,TRAIN CHOICE,6,1,,,1,4,,,,0,10,Stimuli/Evan_Stimuli/Scissors.png,Stimuli/Evan_Stimuli/Girl.png,,,49,,,1,0,,,,,,,,0.6,0.8,1,1,Stimuli/Evan_Stimuli/Scissors.png,TRUE,3,4,GAIN,,,,,,,,,
,evan-two-stim-choice,29,84867,0.0-29.0,1,aug_19_2019,1716,,,,964.655,TRAIN CHOICE,6,1,,,1,4,,,,10,0,Stimuli/Evan_Stimuli/Scissors.png,Stimuli/Evan_Stimuli/Girl.png,,,50,,,2,0,,,,,,,,0.6,0.8,2,1,Stimuli/Evan_Stimuli/Girl.png,FALSE,3,4,GAIN,,,,,,,,,
,evan-two-stim-choice,30,92107,0.0-30.0,1,aug_19_2019,1716,,,,525.62,TRAIN CHOICE,6,1,,,1,4,,,,-10,0,Stimuli/Evan_Stimuli/Scissors.png,Stimuli/Evan_Stimuli/Girl.png,,,49,,,2,0,,,,,,,,0.6,0.8,1,1,Stimuli/Evan_Stimuli/Girl.png,TRUE,3,4,LOSS,,,,,,,,,
,evan-two-stim-choice,31,99246,0.0-31.0,1,aug_19_2019,1716,,,,437.91,TRAIN CHOICE,6,1,,,1,4,,,,0,-10,Stimuli/Evan_Stimuli/Scissors.png,Stimuli/Evan_Stimuli/Girl.png,,,50,,,1,0,,,,,,,,0.6,0.8,2,1,Stimuli/Evan_Stimuli/Scissors.png,FALSE,3,4,LOSS,,,,,,,,,
,evan-display-text,32,100216,0.0-32.0,1,aug_19_2019,1716,You'll now play the HAND slot machine.,"For each game, press 1 to play the machine.",Please pay attention! There will be checks.,968.755,TRAIN INFO,1,1,,,,,,,,,,,,,,,,,,,,,,,,,,,,,,,,,,,,,,,,,,,
,evan-run-trial,33,102882,0.0-33.0,1,aug_19_2019,1716,,,,332.625,TRAIN OBSERVE,1,1,1,1,2,4,FALSE,1,10,10,10,Stimuli/Evan_Stimuli/Scissors.png,Stimuli/Evan_Stimuli/Girl.png,Stimuli/Evan_Stimuli/House.png,Stimuli/Evan_Stimuli/Hand.png,49,1,1,1,10,2,,,,,,,,,,,,,,,,,,,,,,,,
,evan-info-quiz,34,103982,0.0-34.0,1,aug_19_2019,1716,,,,595.305,,1,1,,,,,,,,,,,,,,,,,,,,Stimuli/Evan_Stimuli/Scissors.png,SCISSORS,TRUE,TRUE,1,50,,,,,,,,,,,,,,,,,,
,evan-run-trial,35,106569,0.0-35.0,1,aug_19_2019,1716,,,,262.96,TRAIN OBSERVE,1,1,1,1,2,4,FALSE,0,10,10,10,Stimuli/Evan_Stimuli/Scissors.png,Stimuli/Evan_Stimuli/Girl.png,Stimuli/Evan_Stimuli/House.png,Stimuli/Evan_Stimuli/Hand.png,49,1,1,2,10,2,,,,,,,,,,,,,,,,,,,,,,,,
,evan-run-trial,36,109254,0.0-36.0,1,aug_19_2019,1716,,,,347.825,TRAIN OBSERVE,1,1,1,1,2,4,FALSE,0,10,10,10,Stimuli/Evan_Stimuli/Scissors.png,Stimuli/Evan_Stimuli/Girl.png,Stimuli/Evan_Stimuli/House.png,Stimuli/Evan_Stimuli/Hand.png,49,1,1,2,10,2,,,,,,,,,,,,,,,,,,,,,,,,
,evan-run-trial,37,111957,0.0-37.0,1,aug_19_2019,1716,,,,363.62,TRAIN OBSERVE,1,1,1,1,2,4,FALSE,0,10,10,10,Stimuli/Evan_Stimuli/Scissors.png,Stimuli/Evan_Stimuli/Girl.png,Stimuli/Evan_Stimuli/House.png,Stimuli/Evan_Stimuli/Hand.png,49,1,1,2,10,2,,,,,,,,,,,,,,,,,,,,,,,,
,evan-run-trial,38,114642,0.0-38.0,1,aug_19_2019,1716,,,,350.86,TRAIN OBSERVE,1,1,1,1,2,4,FALSE,1,10,10,10,Stimuli/Evan_Stimuli/Scissors.png,Stimuli/Evan_Stimuli/Girl.png,Stimuli/Evan_Stimuli/House.png,Stimuli/Evan_Stimuli/Hand.png,49,1,1,1,10,2,,,,,,,,,,,,,,,,,,,,,,,,
,evan-info-quiz,39,115676,0.0-39.0,1,aug_19_2019,1716,,,,531.68,,1,1,,,,,,,,,,,,,,,,,,,,Stimuli/Evan_Stimuli/Scissors.png,SCISSORS,FALSE,TRUE,1,50,,,,,,,,,,,,,,,,,,
,evan-run-trial,40,118361,0.0-40.0,1,aug_19_2019,1716,,,,359.615,TRAIN OBSERVE,1,1,1,1,2,4,FALSE,0,10,10,10,Stimuli/Evan_Stimuli/Scissors.png,Stimuli/Evan_Stimuli/Girl.png,Stimuli/Evan_Stimuli/House.png,Stimuli/Evan_Stimuli/Hand.png,49,1,1,2,10,2,,,,,,,,,,,,,,,,,,,,,,,,
,evan-run-trial,41,121280,0.0-41.0,1,aug_19_2019,1716,,,,586.885,TRAIN OBSERVE,1,1,1,1,2,4,FALSE,0,10,10,10,Stimuli/Evan_Stimuli/Scissors.png,Stimuli/Evan_Stimuli/Girl.png,Stimuli/Evan_Stimuli/House.png,Stimuli/Evan_Stimuli/Hand.png,49,1,1,2,10,2,,,,,,,,,,,,,,,,,,,,,,,,
,evan-run-trial,42,124117,0.0-42.0,1,aug_19_2019,1716,,,,500.575,TRAIN OBSERVE,1,1,1,1,2,4,FALSE,0,10,10,10,Stimuli/Evan_Stimuli/Scissors.png,Stimuli/Evan_Stimuli/Girl.png,Stimuli/Evan_Stimuli/House.png,Stimuli/Evan_Stimuli/Hand.png,49,1,1,2,10,2,,,,,,,,,,,,,,,,,,,,,,,,
,evan-run-trial,43,126853,0.0-43.0,1,aug_19_2019,1716,,,,399,TRAIN OBSERVE,1,1,1,1,2,4,FALSE,1,10,10,10,Stimuli/Evan_Stimuli/Scissors.png,Stimuli/Evan_Stimuli/Girl.png,Stimuli/Evan_Stimuli/House.png,Stimuli/Evan_Stimuli/Hand.png,49,1,1,1,10,2,,,,,,,,,,,,,,,,,,,,,,,,
,evan-info-quiz,44,128844,0.0-44.0,1,aug_19_2019,1716,,,,1487.36,,1,1,,,,,,,,,,,,,,,,,,,,Stimuli/Evan_Stimuli/Scissors.png,SCISSORS,FALSE,TRUE,1,49,,,,,,,,,,,,,,,,,,
,evan-run-trial,45,131589,0.0-45.0,1,aug_19_2019,1716,,,,406.65,TRAIN OBSERVE,1,1,1,1,2,4,FALSE,1,10,10,10,Stimuli/Evan_Stimuli/Scissors.png,Stimuli/Evan_Stimuli/Girl.png,Stimuli/Evan_Stimuli/House.png,Stimuli/Evan_Stimuli/Hand.png,49,1,1,1,10,2,,,,,,,,,,,,,,,,,,,,,,,,
,evan-display-text,46,132439,0.0-46.0,1,aug_19_2019,1716,You'll now play the ZEBRA slot machine.,"For each game, press 1 to play the machine.",Please pay attention! There will be checks.,848.415,TRAIN INFO,1,1,,,,,,,,,,,,,,,,,,,,,,,,,,,,,,,,,,,,,,,,,,,
,evan-run-trial,47,135193,0.0-47.0,1,aug_19_2019,1716,,,,411.93,TRAIN OBSERVE,1,1,1,1,2,4,FALSE,1,10,10,10,Stimuli/Evan_Stimuli/Scissors.png,Stimuli/Evan_Stimuli/Girl.png,Stimuli/Evan_Stimuli/House.png,Stimuli/Evan_Stimuli/Zebra.png,49,1,1,1,10,1,,,,,,,,,,,,,,,,,,,,,,,,
,evan-run-trial,48,138062,0.0-48.0,1,aug_19_2019,1716,,,,538.545,TRAIN OBSERVE,1,1,1,1,2,4,FALSE,0,10,10,10,Stimuli/Evan_Stimuli/Scissors.png,Stimuli/Evan_Stimuli/Girl.png,Stimuli/Evan_Stimuli/House.png,Stimuli/Evan_Stimuli/Zebra.png,49,1,1,2,10,1,,,,,,,,,,,,,,,,,,,,,,,,
,evan-run-trial,49,140798,0.0-49.0,1,aug_19_2019,1716,,,,405.425,TRAIN OBSERVE,1,1,1,1,2,4,FALSE,0,10,10,10,Stimuli/Evan_Stimuli/Scissors.png,Stimuli/Evan_Stimuli/Girl.png,Stimuli/Evan_Stimuli/House.png,Stimuli/Evan_Stimuli/Zebra.png,49,1,1,2,10,1,,,,,,,,,,,,,,,,,,,,,,,,
,evan-info-quiz,50,142220,0.0-50.0,1,aug_19_2019,1716,,,,917.775,,1,1,,,,,,,,,,,,,,,,,,,,Stimuli/Evan_Stimuli/Zebra.png,ZEBRA,TRUE,FALSE,1,50,,,,,,,,,,,,,,,,,,
,evan-run-trial,51,144935,0.0-51.0,1,aug_19_2019,1716,,,,375.265,TRAIN OBSERVE,1,1,1,1,2,4,FALSE,0,10,10,10,Stimuli/Evan_Stimuli/Scissors.png,Stimuli/Evan_Stimuli/Girl.png,Stimuli/Evan_Stimuli/House.png,Stimuli/Evan_Stimuli/Zebra.png,49,1,1,2,10,1,,,,,,,,,,,,,,,,,,,,,,,,
,evan-run-trial,52,147637,0.0-52.0,1,aug_19_2019,1716,,,,365.04,TRAIN OBSERVE,1,1,1,1,2,4,FALSE,0,10,10,10,Stimuli/Evan_Stimuli/Scissors.png,Stimuli/Evan_Stimuli/Girl.png,Stimuli/Evan_Stimuli/House.png,Stimuli/Evan_Stimuli/Zebra.png,49,1,1,2,10,1,,,,,,,,,,,,,,,,,,,,,,,,
,evan-run-trial,53,150356,0.0-53.0,1,aug_19_2019,1716,,,,383.51,TRAIN OBSERVE,1,1,1,1,2,4,FALSE,0,10,10,10,Stimuli/Evan_Stimuli/Scissors.png,Stimuli/Evan_Stimuli/Girl.png,Stimuli/Evan_Stimuli/House.png,Stimuli/Evan_Stimuli/Zebra.png,49,1,1,2,10,1,,,,,,,,,,,,,,,,,,,,,,,,
,evan-info-quiz,54,151644,0.0-54.0,1,aug_19_2019,1716,,,,784.545,,1,1,,,,,,,,,,,,,,,,,,,,Stimuli/Evan_Stimuli/Zebra.png,ZEBRA,FALSE,FALSE,1,50,,,,,,,,,,,,,,,,,,
,evan-run-trial,55,154508,0.0-55.0,1,aug_19_2019,1716,,,,536.52,TRAIN OBSERVE,1,1,1,1,2,4,FALSE,0,10,10,10,Stimuli/Evan_Stimuli/Scissors.png,Stimuli/Evan_Stimuli/Girl.png,Stimuli/Evan_Stimuli/House.png,Stimuli/Evan_Stimuli/Zebra.png,49,1,1,2,10,1,,,,,,,,,,,,,,,,,,,,,,,,
,evan-run-trial,56,157278,0.0-56.0,1,aug_19_2019,1716,,,,440.575,TRAIN OBSERVE,1,1,1,1,2,4,FALSE,1,10,10,10,Stimuli/Evan_Stimuli/Scissors.png,Stimuli/Evan_Stimuli/Girl.png,Stimuli/Evan_Stimuli/House.png,Stimuli/Evan_Stimuli/Zebra.png,49,1,1,1,10,1,,,,,,,,,,,,,,,,,,,,,,,,
,evan-run-trial,57,160048,0.0-57.0,1,aug_19_2019,1716,,,,438.165,TRAIN OBSERVE,1,1,1,1,2,4,FALSE,0,10,10,10,Stimuli/Evan_Stimuli/Scissors.png,Stimuli/Evan_Stimuli/Girl.png,Stimuli/Evan_Stimuli/House.png,Stimuli/Evan_Stimuli/Zebra.png,49,1,1,2,10,1,,,,,,,,,,,,,,,,,,,,,,,,
,evan-run-trial,58,162816,0.0-58.0,1,aug_19_2019,1716,,,,436.705,TRAIN OBSERVE,1,1,1,1,2,4,FALSE,0,10,10,10,Stimuli/Evan_Stimuli/Scissors.png,Stimuli/Evan_Stimuli/Girl.png,Stimuli/Evan_Stimuli/House.png,Stimuli/Evan_Stimuli/Zebra.png,49,1,1,2,10,1,,,,,,,,,,,,,,,,,,,,,,,,
,evan-display-text,59,164279,0.0-59.0,1,aug_19_2019,1716,You'll now make some choices between the ZEBRA and the HAND machines to earn points!,Press 1 to select the LEFT machine and 2 to select the RIGHT machine.,"Before each choice, you'll be shown the number of points for each banknote. Pay attention!",1461.475,TRAIN INFO,1,1,,,,,,,,,,,,,,,,,,,,,,,,,,,,,,,,,,,,,,,,,,,
,evan-two-stim-choice,60,174843,0.0-60.0,1,aug_19_2019,1716,,,,3875.77,TRAIN CHOICE,1,1,,,1,4,,,,0,-10,Stimuli/Evan_Stimuli/Scissors.png,Stimuli/Evan_Stimuli/Girl.png,,,50,,,2,-10,,,,,,,,0.2,0.4,2,2,Stimuli/Evan_Stimuli/Girl.png,TRUE,1,2,LOSS,,,,,,,,,
,evan-two-stim-choice,61,183251,0.0-61.0,1,aug_19_2019,1716,,,,1684.995,TRAIN CHOICE,1,1,,,1,4,,,,-10,0,Stimuli/Evan_Stimuli/Scissors.png,Stimuli/Evan_Stimuli/Girl.png,,,50,,,2,0,,,,,,,,0.2,0.4,2,1,Stimuli/Evan_Stimuli/Girl.png,TRUE,1,2,LOSS,,,,,,,,,
,evan-two-stim-choice,62,192425,0.0-62.0,1,aug_19_2019,1716,,,,2460.11,TRAIN CHOICE,1,1,,,1,4,,,,0,10,Stimuli/Evan_Stimuli/Scissors.png,Stimuli/Evan_Stimuli/Girl.png,,,50,,,2,10,,,,,,,,0.2,0.4,2,2,Stimuli/Evan_Stimuli/Girl.png,FALSE,1,2,GAIN,,,,,,,,,
,evan-two-stim-choice,63,200699,0.0-63.0,1,aug_19_2019,1716,,,,1575.315,TRAIN CHOICE,1,1,,,1,4,,,,10,0,Stimuli/Evan_Stimuli/Scissors.png,Stimuli/Evan_Stimuli/Girl.png,,,49,,,1,10,,,,,,,,0.2,0.4,1,2,Stimuli/Evan_Stimuli/Scissors.png,TRUE,1,2,GAIN,,,,,,,,,
,evan-display-text,64,201751,0.0-64.0,1,aug_19_2019,1716,You'll now play the ZEBRA slot machine.,"For each game, press 1 to play the machine.",Please pay attention! There will be checks.,1051.115,TRAIN INFO,3,1,,,,,,,,,,,,,,,,,,,,,,,,,,,,,,,,,,,,,,,,,,,
,evan-run-trial,65,204434,0.0-65.0,1,aug_19_2019,1716,,,,349.27,TRAIN OBSERVE,3,1,1,1,2,4,FALSE,0,10,10,10,Stimuli/Evan_Stimuli/Scissors.png,Stimuli/Evan_Stimuli/Girl.png,Stimuli/Evan_Stimuli/House.png,Stimuli/Evan_Stimuli/Zebra.png,49,1,1,2,10,1,,,,,,,,,,,,,,,,,,,,,,,,
,evan-run-trial,66,207337,0.0-66.0,1,aug_19_2019,1716,,,,562.695,TRAIN OBSERVE,3,1,1,1,2,4,FALSE,0,10,10,10,Stimuli/Evan_Stimuli/Scissors.png,Stimuli/Evan_Stimuli/Girl.png,Stimuli/Evan_Stimuli/House.png,Stimuli/Evan_Stimuli/Zebra.png,49,1,1,2,10,1,,,,,,,,,,,,,,,,,,,,,,,,
,evan-run-trial,67,210189,0.0-67.0,1,aug_19_2019,1716,,,,522.8649999,TRAIN OBSERVE,3,1,1,1,2,4,FALSE,0,10,10,10,Stimuli/Evan_Stimuli/Scissors.png,Stimuli/Evan_Stimuli/Girl.png,Stimuli/Evan_Stimuli/House.png,Stimuli/Evan_Stimuli/Zebra.png,49,1,1,2,10,1,,,,,,,,,,,,,,,,,,,,,,,,
,evan-run-trial,68,212993,0.0-68.0,1,aug_19_2019,1716,,,,470.85,TRAIN OBSERVE,3,1,1,1,2,4,FALSE,1,10,10,10,Stimuli/Evan_Stimuli/Scissors.png,Stimuli/Evan_Stimuli/Girl.png,Stimuli/Evan_Stimuli/House.png,Stimuli/Evan_Stimuli/Zebra.png,49,1,1,1,10,1,,,,,,,,,,,,,,,,,,,,,,,,
,evan-run-trial,69,215696,0.0-69.0,1,aug_19_2019,1716,,,,367.845,TRAIN OBSERVE,3,1,1,1,2,4,FALSE,0,10,10,10,Stimuli/Evan_Stimuli/Scissors.png,Stimuli/Evan_Stimuli/Girl.png,Stimuli/Evan_Stimuli/House.png,Stimuli/Evan_Stimuli/Zebra.png,49,1,1,2,10,1,,,,,,,,,,,,,,,,,,,,,,,,
,evan-run-trial,70,218363,0.0-70.0,1,aug_19_2019,1716,,,,339.61,TRAIN OBSERVE,3,1,1,1,2,4,FALSE,1,10,10,10,Stimuli/Evan_Stimuli/Scissors.png,Stimuli/Evan_Stimuli/Girl.png,Stimuli/Evan_Stimuli/House.png,Stimuli/Evan_Stimuli/Zebra.png,49,1,1,1,10,1,,,,,,,,,,,,,,,,,,,,,,,,
,evan-run-trial,71,220731,0.0-71.0,1,aug_19_2019,1716,,,,41.90000001,TRAIN OBSERVE,3,1,1,1,2,4,FALSE,0,10,10,10,Stimuli/Evan_Stimuli/Scissors.png,Stimuli/Evan_Stimuli/Girl.png,Stimuli/Evan_Stimuli/House.png,Stimuli/Evan_Stimuli/Zebra.png,49,1,1,2,10,1,,,,,,,,,,,,,,,,,,,,,,,,
,evan-run-trial,72,223402,0.0-72.0,1,aug_19_2019,1716,,,,344.765,TRAIN OBSERVE,3,1,1,1,2,4,FALSE,0,10,10,10,Stimuli/Evan_Stimuli/Scissors.png,Stimuli/Evan_Stimuli/Girl.png,Stimuli/Evan_Stimuli/House.png,Stimuli/Evan_Stimuli/Zebra.png,49,1,1,2,10,1,,,,,,,,,,,,,,,,,,,,,,,,
,evan-run-trial,73,226154,0.0-73.0,1,aug_19_2019,1716,,,,427.03,TRAIN OBSERVE,3,1,1,1,2,4,FALSE,0,10,10,10,Stimuli/Evan_Stimuli/Scissors.png,Stimuli/Evan_Stimuli/Girl.png,Stimuli/Evan_Stimuli/House.png,Stimuli/Evan_Stimuli/Zebra.png,49,1,1,2,10,1,,,,,,,,,,,,,,,,,,,,,,,,
,evan-run-trial,74,228873,0.0-74.0,1,aug_19_2019,1716,,,,394.315,TRAIN OBSERVE,3,1,1,1,2,4,FALSE,0,10,10,10,Stimuli/Evan_Stimuli/Scissors.png,Stimuli/Evan_Stimuli/Girl.png,Stimuli/Evan_Stimuli/House.png,Stimuli/Evan_Stimuli/Zebra.png,49,1,1,2,10,1,,,,,,,,,,,,,,,,,,,,,,,,
,evan-display-text,75,229799,0.0-75.0,1,aug_19_2019,1716,You'll now play the BUTTERFLY slot machine.,"For each game, press 1 to play the machine.",Please pay attention! There will be checks.,924.9,TRAIN INFO,3,1,,,,,,,,,,,,,,,,,,,,,,,,,,,,,,,,,,,,,,,,,,,
,evan-run-trial,76,232508,0.0-76.0,1,aug_19_2019,1716,,,,380.04,TRAIN OBSERVE,3,1,1,1,2,4,FALSE,1,10,10,10,Stimuli/Evan_Stimuli/Scissors.png,Stimuli/Evan_Stimuli/Girl.png,Stimuli/Evan_Stimuli/House.png,Stimuli/Evan_Stimuli/Butterfly.png,49,1,1,1,10,4,,,,,,,,,,,,,,,,,,,,,,,,
,evan-run-trial,77,235178,0.0-77.0,1,aug_19_2019,1716,,,,343.705,TRAIN OBSERVE,3,1,1,1,2,4,FALSE,0,10,10,10,Stimuli/Evan_Stimuli/Scissors.png,Stimuli/Evan_Stimuli/Girl.png,Stimuli/Evan_Stimuli/House.png,Stimuli/Evan_Stimuli/Butterfly.png,49,1,1,2,10,4,,,,,,,,,,,,,,,,,,,,,,,,
,evan-run-trial,78,237864,0.0-78.0,1,aug_19_2019,1716,,,,346.88,TRAIN OBSERVE,3,1,1,1,2,4,FALSE,1,10,10,10,Stimuli/Evan_Stimuli/Scissors.png,Stimuli/Evan_Stimuli/Girl.png,Stimuli/Evan_Stimuli/House.png,Stimuli/Evan_Stimuli/Butterfly.png,49,1,1,1,10,4,,,,,,,,,,,,,,,,,,,,,,,,
,evan-run-trial,79,240649,0.0-79.0,1,aug_19_2019,1716,,,,459.985,TRAIN OBSERVE,3,1,1,1,2,4,FALSE,1,10,10,10,Stimuli/Evan_Stimuli/Scissors.png,Stimuli/Evan_Stimuli/Girl.png,Stimuli/Evan_Stimuli/House.png,Stimuli/Evan_Stimuli/Butterfly.png,49,1,1,1,10,4,,,,,,,,,,,,,,,,,,,,,,,,
,evan-run-trial,80,243384,0.0-80.0,1,aug_19_2019,1716,,,,395.695,TRAIN OBSERVE,3,1,1,1,2,4,FALSE,1,10,10,10,Stimuli/Evan_Stimuli/Scissors.png,Stimuli/Evan_Stimuli/Girl.png,Stimuli/Evan_Stimuli/House.png,Stimuli/Evan_Stimuli/Butterfly.png,49,1,1,1,10,4,,,,,,,,,,,,,,,,,,,,,,,,
,evan-info-quiz,81,245149,0.0-81.0,1,aug_19_2019,1716,,,,1259.915,,3,1,,,,,,,,,,,,,,,,,,,,Stimuli/Evan_Stimuli/Butterfly.png,BUTTERFLY,FALSE,FALSE,1,52,,,,,,,,,,,,,,,,,,
,evan-run-trial,82,247890,0.0-82.0,1,aug_19_2019,1716,,,,407.93,TRAIN OBSERVE,3,1,1,1,2,4,FALSE,1,10,10,10,Stimuli/Evan_Stimuli/Scissors.png,Stimuli/Evan_Stimuli/Girl.png,Stimuli/Evan_Stimuli/House.png,Stimuli/Evan_Stimuli/Butterfly.png,49,1,1,1,10,4,,,,,,,,,,,,,,,,,,,,,,,,
,evan-run-trial,83,250575,0.0-83.0,1,aug_19_2019,1716,,,,355.105,TRAIN OBSERVE,3,1,1,1,2,4,FALSE,1,10,10,10,Stimuli/Evan_Stimuli/Scissors.png,Stimuli/Evan_Stimuli/Girl.png,Stimuli/Evan_Stimuli/House.png,Stimuli/Evan_Stimuli/Butterfly.png,49,1,1,1,10,4,,,,,,,,,,,,,,,,,,,,,,,,
,evan-run-trial,84,253360,0.0-84.0,1,aug_19_2019,1716,,,,453.835,TRAIN OBSERVE,3,1,1,1,2,4,FALSE,1,10,10,10,Stimuli/Evan_Stimuli/Scissors.png,Stimuli/Evan_Stimuli/Girl.png,Stimuli/Evan_Stimuli/House.png,Stimuli/Evan_Stimuli/Butterfly.png,49,1,1,1,10,4,,,,,,,,,,,,,,,,,,,,,,,,
,evan-run-trial,85,256114,0.0-85.0,1,aug_19_2019,1716,,,,421.165,TRAIN OBSERVE,3,1,1,1,2,4,FALSE,0,10,10,10,Stimuli/Evan_Stimuli/Scissors.png,Stimuli/Evan_Stimuli/Girl.png,Stimuli/Evan_Stimuli/House.png,Stimuli/Evan_Stimuli/Butterfly.png,49,1,1,2,10,4,,,,,,,,,,,,,,,,,,,,,,,,
,evan-run-trial,86,258949,0.0-86.0,1,aug_19_2019,1716,,,,499.47,TRAIN OBSERVE,3,1,1,1,2,4,FALSE,1,10,10,10,Stimuli/Evan_Stimuli/Scissors.png,Stimuli/Evan_Stimuli/Girl.png,Stimuli/Evan_Stimuli/House.png,Stimuli/Evan_Stimuli/Butterfly.png,49,1,1,1,10,4,,,,,,,,,,,,,,,,,,,,,,,,
,evan-display-text,87,260168,0.0-87.0,1,aug_19_2019,1716,You'll now make some choices between the ZEBRA and the BUTTERFLY machines to earn points!,Press 1 to select the LEFT machine and 2 to select the RIGHT machine.,"Before each choice, you'll be shown the number of points for each banknote. Pay attention!",1217.185,TRAIN INFO,3,1,,,,,,,,,,,,,,,,,,,,,,,,,,,,,,,,,,,,,,,,,,,
,evan-two-stim-choice,88,268474,0.0-88.0,1,aug_19_2019,1716,,,,1593.09,TRAIN CHOICE,3,1,,,1,4,,,,-10,0,Stimuli/Evan_Stimuli/Scissors.png,Stimuli/Evan_Stimuli/Girl.png,,,50,,,2,0,,,,,,,,0.2,0.8,2,1,Stimuli/Evan_Stimuli/Girl.png,TRUE,1,4,LOSS,,,,,,,,,
,evan-two-stim-choice,89,276429,0.0-89.0,1,aug_19_2019,1716,,,,1238.66,TRAIN CHOICE,3,1,,,1,4,,,,10,0,Stimuli/Evan_Stimuli/Scissors.png,Stimuli/Evan_Stimuli/Girl.png,,,49,,,1,10,,,,,,,,0.2,0.8,1,2,Stimuli/Evan_Stimuli/Scissors.png,TRUE,1,4,GAIN,,,,,,,,,
,evan-two-stim-choice,90,281302,0.0-90.0,1,aug_19_2019,1716,,,,null,REW TEST 1,3,1,,,1,1,,,,0,10,Stimuli/Evan_Stimuli/Scissors.png,Stimuli/Evan_Stimuli/Girl.png,,,null,,,null,null,,,,,,,,0.2,0.4,null,null,,null,1,2,test,,,,,,,,,
,evan-reward-quiz,91,283693,0.0-91.0,1,aug_19_2019,1716,,,,1886.57,,3,1,,,,,,,,,,,,,,,,,,,,,,,,1,51,,,,,,,,,,Stimuli/Evan_Stimuli/Scissors.png,0,SCISSORS,,,,,,
,evan-two-stim-choice,92,298550,0.0-92.0,1,aug_19_2019,1716,,,,8152.42,TRAIN CHOICE,3,1,,,1,4,,,,0,-10,Stimuli/Evan_Stimuli/Scissors.png,Stimuli/Evan_Stimuli/Girl.png,,,50,,,1,0,,,,,,,,0.2,0.8,2,2,Stimuli/Evan_Stimuli/Scissors.png,TRUE,1,4,LOSS,,,,,,,,,
,evan-two-stim-choice,93,306340,0.0-93.0,1,aug_19_2019,1716,,,,1099.135,TRAIN CHOICE,3,1,,,1,4,,,,0,10,Stimuli/Evan_Stimuli/Scissors.png,Stimuli/Evan_Stimuli/Girl.png,,,50,,,2,10,,,,,,,,0.2,0.8,2,1,Stimuli/Evan_Stimuli/Girl.png,TRUE,1,4,GAIN,,,,,,,,,
,evan-display-text,94,307368,0.0-94.0,1,aug_19_2019,1716,You'll now play the PEPPER slot machine.,"For each game, press 1 to play the machine.",Please pay attention! There will be checks.,1026.665,TRAIN INFO,2,1,,,,,,,,,,,,,,,,,,,,,,,,,,,,,,,,,,,,,,,,,,,
,evan-run-trial,95,310059,0.0-95.0,1,aug_19_2019,1716,,,,364.755,TRAIN OBSERVE,2,1,1,1,2,4,FALSE,1,10,10,10,Stimuli/Evan_Stimuli/Scissors.png,Stimuli/Evan_Stimuli/Girl.png,Stimuli/Evan_Stimuli/House.png,Stimuli/Evan_Stimuli/Pepper.png,49,1,1,1,10,3,,,,,,,,,,,,,,,,,,,,,,,,
,evan-run-trial,96,312745,0.0-96.0,1,aug_19_2019,1716,,,,344.63,TRAIN OBSERVE,2,1,1,1,2,4,FALSE,1,10,10,10,Stimuli/Evan_Stimuli/Scissors.png,Stimuli/Evan_Stimuli/Girl.png,Stimuli/Evan_Stimuli/House.png,Stimuli/Evan_Stimuli/Pepper.png,49,1,1,1,10,3,,,,,,,,,,,,,,,,,,,,,,,,
,evan-run-trial,97,315563,0.0-97.0,1,aug_19_2019,1716,,,,492.175,TRAIN OBSERVE,2,1,1,1,2,4,FALSE,0,10,10,10,Stimuli/Evan_Stimuli/Scissors.png,Stimuli/Evan_Stimuli/Girl.png,Stimuli/Evan_Stimuli/House.png,Stimuli/Evan_Stimuli/Pepper.png,49,1,1,2,10,3,,,,,,,,,,,,,,,,,,,,,,,,
,evan-run-trial,98,325873,0.0-98.0,1,aug_19_2019,1716,,,,7881.345,TRAIN OBSERVE,2,1,1,1,2,4,FALSE,1,10,10,10,Stimuli/Evan_Stimuli/Scissors.png,Stimuli/Evan_Stimuli/Girl.png,Stimuli/Evan_Stimuli/House.png,Stimuli/Evan_Stimuli/Pepper.png,49,1,1,1,10,3,,,,,,,,,,,,,,,,,,,,,,,,
,evan-info-quiz,99,327308,0.0-99.0,1,aug_19_2019,1716,,,,931.9,,2,1,,,,,,,,,,,,,,,,,,,,Stimuli/Evan_Stimuli/Pepper.png,PEPPER,TRUE,FALSE,1,52,,,,,,,,,,,,,,,,,,
,evan-run-trial,100,330042,0.0-100.0,1,aug_19_2019,1716,,,,406.645,TRAIN OBSERVE,2,1,1,1,2,4,FALSE,1,10,10,10,Stimuli/Evan_Stimuli/Scissors.png,Stimuli/Evan_Stimuli/Girl.png,Stimuli/Evan_Stimuli/House.png,Stimuli/Evan_Stimuli/Pepper.png,49,1,1,1,10,3,,,,,,,,,,,,,,,,,,,,,,,,
,evan-run-trial,101,332828,0.0-101.0,1,aug_19_2019,1716,,,,457.885,TRAIN OBSERVE,2,1,1,1,2,4,FALSE,1,10,10,10,Stimuli/Evan_Stimuli/Scissors.png,Stimuli/Evan_Stimuli/Girl.png,Stimuli/Evan_Stimuli/House.png,Stimuli/Evan_Stimuli/Pepper.png,49,1,1,1,10,3,,,,,,,,,,,,,,,,,,,,,,,,
,evan-run-trial,102,335731,0.0-102.0,1,aug_19_2019,1716,,,,567.975,TRAIN OBSERVE,2,1,1,1,2,4,FALSE,1,10,10,10,Stimuli/Evan_Stimuli/Scissors.png,Stimuli/Evan_Stimuli/Girl.png,Stimuli/Evan_Stimuli/House.png,Stimuli/Evan_Stimuli/Pepper.png,49,1,1,1,10,3,,,,,,,,,,,,,,,,,,,,,,,,
,evan-run-trial,103,338516,0.0-103.0,1,aug_19_2019,1716,,,,449.15,TRAIN OBSERVE,2,1,1,1,2,4,FALSE,0,10,10,10,Stimuli/Evan_Stimuli/Scissors.png,Stimuli/Evan_Stimuli/Girl.png,Stimuli/Evan_Stimuli/House.png,Stimuli/Evan_Stimuli/Pepper.png,49,1,1,2,10,3,,,,,,,,,,,,,,,,,,,,,,,,
,evan-run-trial,104,341386,0.0-104.0,1,aug_19_2019,1716,,,,544.2,TRAIN OBSERVE,2,1,1,1,2,4,FALSE,0,10,10,10,Stimuli/Evan_Stimuli/Scissors.png,Stimuli/Evan_Stimuli/Girl.png,Stimuli/Evan_Stimuli/House.png,Stimuli/Evan_Stimuli/Pepper.png,49,1,1,2,10,3,,,,,,,,,,,,,,,,,,,,,,,,
,evan-run-trial,105,344238,0.0-105.0,1,aug_19_2019,1716,,,,522.105,TRAIN OBSERVE,2,1,1,1,2,4,FALSE,0,10,10,10,Stimuli/Evan_Stimuli/Scissors.png,Stimuli/Evan_Stimuli/Girl.png,Stimuli/Evan_Stimuli/House.png,Stimuli/Evan_Stimuli/Pepper.png,49,1,1,2,10,3,,,,,,,,,,,,,,,,,,,,,,,,
,evan-display-text,106,345112,0.0-106.0,1,aug_19_2019,1716,You'll now play the ZEBRA slot machine.,"For each game, press 1 to play the machine.",Please pay attention! There will be checks.,872.005,TRAIN INFO,2,1,,,,,,,,,,,,,,,,,,,,,,,,,,,,,,,,,,,,,,,,,,,
,evan-run-trial,107,347857,0.0-107.0,1,aug_19_2019,1716,,,,413.885,TRAIN OBSERVE,2,1,1,1,2,4,FALSE,0,10,10,10,Stimuli/Evan_Stimuli/Scissors.png,Stimuli/Evan_Stimuli/Girl.png,Stimuli/Evan_Stimuli/House.png,Stimuli/Evan_Stimuli/Zebra.png,49,1,1,2,10,1,,,,,,,,,,,,,,,,,,,,,,,,
,evan-run-trial,108,350793,0.0-108.0,1,aug_19_2019,1716,,,,611.87,TRAIN OBSERVE,2,1,1,1,2,4,FALSE,0,10,10,10,Stimuli/Evan_Stimuli/Scissors.png,Stimuli/Evan_Stimuli/Girl.png,Stimuli/Evan_Stimuli/House.png,Stimuli/Evan_Stimuli/Zebra.png,49,1,1,2,10,1,,,,,,,,,,,,,,,,,,,,,,,,
,evan-run-trial,109,353579,0.0-109.0,1,aug_19_2019,1716,,,,459.46,TRAIN OBSERVE,2,1,1,1,2,4,FALSE,0,10,10,10,Stimuli/Evan_Stimuli/Scissors.png,Stimuli/Evan_Stimuli/Girl.png,Stimuli/Evan_Stimuli/House.png,Stimuli/Evan_Stimuli/Zebra.png,49,1,1,2,10,1,,,,,,,,,,,,,,,,,,,,,,,,
,evan-run-trial,110,356332,0.0-110.0,1,aug_19_2019,1716,,,,425.08,TRAIN OBSERVE,2,1,1,1,2,4,FALSE,0,10,10,10,Stimuli/Evan_Stimuli/Scissors.png,Stimuli/Evan_Stimuli/Girl.png,Stimuli/Evan_Stimuli/House.png,Stimuli/Evan_Stimuli/Zebra.png,49,1,1,2,10,1,,,,,,,,,,,,,,,,,,,,,,,,
,evan-run-trial,111,359184,0.0-111.0,1,aug_19_2019,1716,,,,520.88,TRAIN OBSERVE,2,1,1,1,2,4,FALSE,0,10,10,10,Stimuli/Evan_Stimuli/Scissors.png,Stimuli/Evan_Stimuli/Girl.png,Stimuli/Evan_Stimuli/House.png,Stimuli/Evan_Stimuli/Zebra.png,49,1,1,2,10,1,,,,,,,,,,,,,,,,,,,,,,,,
,evan-run-trial,112,362002,0.0-112.0,1,aug_19_2019,1716,,,,485.04,TRAIN OBSERVE,2,1,1,1,2,4,FALSE,1,10,10,10,Stimuli/Evan_Stimuli/Scissors.png,Stimuli/Evan_Stimuli/Girl.png,Stimuli/Evan_Stimuli/House.png,Stimuli/Evan_Stimuli/Zebra.png,49,1,1,1,10,1,,,,,,,,,,,,,,,,,,,,,,,,
,evan-run-trial,113,364755,0.0-113.0,1,aug_19_2019,1716,,,,419.535,TRAIN OBSERVE,2,1,1,1,2,4,FALSE,0,10,10,10,Stimuli/Evan_Stimuli/Scissors.png,Stimuli/Evan_Stimuli/Girl.png,Stimuli/Evan_Stimuli/House.png,Stimuli/Evan_Stimuli/Zebra.png,49,1,1,2,10,1,,,,,,,,,,,,,,,,,,,,,,,,
,evan-run-trial,114,367507,0.0-114.0,1,aug_19_2019,1716,,,,415.3,TRAIN OBSERVE,2,1,1,1,2,4,FALSE,1,10,10,10,Stimuli/Evan_Stimuli/Scissors.png,Stimuli/Evan_Stimuli/Girl.png,Stimuli/Evan_Stimuli/House.png,Stimuli/Evan_Stimuli/Zebra.png,49,1,1,1,10,1,,,,,,,,,,,,,,,,,,,,,,,,
,evan-info-quiz,115,368877,0.0-115.0,1,aug_19_2019,1716,,,,865.855,,2,1,,,,,,,,,,,,,,,,,,,,Stimuli/Evan_Stimuli/Scissors.png,SCISSORS,FALSE,TRUE,1,50,,,,,,,,,,,,,,,,,,
,evan-run-trial,116,371628,0.0-116.0,1,aug_19_2019,1716,,,,422.565,TRAIN OBSERVE,2,1,1,1,2,4,FALSE,0,10,10,10,Stimuli/Evan_Stimuli/Scissors.png,Stimuli/Evan_Stimuli/Girl.png,Stimuli/Evan_Stimuli/House.png,Stimuli/Evan_Stimuli/Zebra.png,49,1,1,2,10,1,,,,,,,,,,,,,,,,,,,,,,,,
,evan-run-trial,117,374397,0.0-117.0,1,aug_19_2019,1716,,,,440.03,TRAIN OBSERVE,2,1,1,1,2,4,FALSE,0,10,10,10,Stimuli/Evan_Stimuli/Scissors.png,Stimuli/Evan_Stimuli/Girl.png,Stimuli/Evan_Stimuli/House.png,Stimuli/Evan_Stimuli/Zebra.png,49,1,1,2,10,1,,,,,,,,,,,,,,,,,,,,,,,,
,evan-display-text,118,375624,0.0-118.0,1,aug_19_2019,1716,You'll now make some choices between the ZEBRA and the PEPPER machines to earn points!,Press 1 to select the LEFT machine and 2 to select the RIGHT machine.,"Before each choice, you'll be shown the number of points for each banknote. Pay attention!",1225.405,TRAIN INFO,2,1,,,,,,,,,,,,,,,,,,,,,,,,,,,,,,,,,,,,,,,,,,,
,evan-two-stim-choice,119,384922,0.0-119.0,1,aug_19_2019,1716,,,,2609.41,TRAIN CHOICE,2,1,,,1,4,,,,10,0,Stimuli/Evan_Stimuli/Scissors.png,Stimuli/Evan_Stimuli/Girl.png,,,49,,,2,0,,,,,,,,0.2,0.6,1,1,Stimuli/Evan_Stimuli/Girl.png,FALSE,1,3,GAIN,,,,,,,,,
,evan-two-stim-choice,120,392129,0.0-120.0,1,aug_19_2019,1716,,,,500.61,TRAIN CHOICE,2,1,,,1,4,,,,0,-10,Stimuli/Evan_Stimuli/Scissors.png,Stimuli/Evan_Stimuli/Girl.png,,,50,,,2,-10,,,,,,,,0.2,0.6,2,2,Stimuli/Evan_Stimuli/Girl.png,TRUE,1,3,LOSS,,,,,,,,,
,evan-two-stim-choice,121,400419,0.0-121.0,1,aug_19_2019,1716,,,,1583.18,TRAIN CHOICE,2,1,,,1,4,,,,-10,0,Stimuli/Evan_Stimuli/Scissors.png,Stimuli/Evan_Stimuli/Girl.png,,,49,,,1,-10,,,,,,,,0.2,0.6,1,2,Stimuli/Evan_Stimuli/Scissors.png,FALSE,1,3,LOSS,,,,,,,,,
,evan-two-stim-choice,122,408625,0.0-122.0,1,aug_19_2019,1716,,,,1485.355,TRAIN CHOICE,2,1,,,1,4,,,,0,10,Stimuli/Evan_Stimuli/Scissors.png,Stimuli/Evan_Stimuli/Girl.png,,,50,,,2,10,,,,,,,,0.2,0.6,2,1,Stimuli/Evan_Stimuli/Girl.png,TRUE,1,3,GAIN,,,,,,,,,
,evan-display-text,123,410663,0.0-123.0,1,aug_19_2019,1716,You'll now play the HAND slot machine.,"For each game, press 1 to play the machine.",Please pay attention! There will be checks.,2036.835,TRAIN INFO,5,1,,,,,,,,,,,,,,,,,,,,,,,,,,,,,,,,,,,,,,,,,,,
,evan-run-trial,124,413713,0.0-124.0,1,aug_19_2019,1716,,,,716.84,TRAIN OBSERVE,5,1,1,1,2,4,FALSE,0,10,10,10,Stimuli/Evan_Stimuli/Scissors.png,Stimuli/Evan_Stimuli/Girl.png,Stimuli/Evan_Stimuli/House.png,Stimuli/Evan_Stimuli/Hand.png,49,1,1,2,10,2,,,,,,,,,,,,,,,,,,,,,,,,
,evan-run-trial,125,416566,0.0-125.0,1,aug_19_2019,1716,,,,514.3550001,TRAIN OBSERVE,5,1,1,1,2,4,FALSE,0,10,10,10,Stimuli/Evan_Stimuli/Scissors.png,Stimuli/Evan_Stimuli/Girl.png,Stimuli/Evan_Stimuli/House.png,Stimuli/Evan_Stimuli/Hand.png,49,1,1,2,10,2,,,,,,,,,,,,,,,,,,,,,,,,
,evan-info-quiz,126,417612,0.0-126.0,1,aug_19_2019,1716,,,,543.44,,5,1,,,,,,,,,,,,,,,,,,,,Stimuli/Evan_Stimuli/Girl.png,GIRL,FALSE,TRUE,1,50,,,,,,,,,,,,,,,,,,
,evan-run-trial,127,420436,0.0-127.0,1,aug_19_2019,1716,,,,488.425,TRAIN OBSERVE,5,1,1,1,2,4,FALSE,0,10,10,10,Stimuli/Evan_Stimuli/Scissors.png,Stimuli/Evan_Stimuli/Girl.png,Stimuli/Evan_Stimuli/House.png,Stimuli/Evan_Stimuli/Hand.png,49,1,1,2,10,2,,,,,,,,,,,,,,,,,,,,,,,,
,evan-run-trial,128,423237,0.0-128.0,1,aug_19_2019,1716,,,,464.07,TRAIN OBSERVE,5,1,1,1,2,4,FALSE,1,10,10,10,Stimuli/Evan_Stimuli/Scissors.png,Stimuli/Evan_Stimuli/Girl.png,Stimuli/Evan_Stimuli/House.png,Stimuli/Evan_Stimuli/Hand.png,49,1,1,1,10,2,,,,,,,,,,,,,,,,,,,,,,,,
,evan-run-trial,129,426023,0.0-129.0,1,aug_19_2019,1716,,,,446.28,TRAIN OBSERVE,5,1,1,1,2,4,FALSE,0,10,10,10,Stimuli/Evan_Stimuli/Scissors.png,Stimuli/Evan_Stimuli/Girl.png,Stimuli/Evan_Stimuli/House.png,Stimuli/Evan_Stimuli/Hand.png,49,1,1,2,10,2,,,,,,,,,,,,,,,,,,,,,,,,
,evan-run-trial,130,428826,0.0-130.0,1,aug_19_2019,1716,,,,478.405,TRAIN OBSERVE,5,1,1,1,2,4,FALSE,1,10,10,10,Stimuli/Evan_Stimuli/Scissors.png,Stimuli/Evan_Stimuli/Girl.png,Stimuli/Evan_Stimuli/House.png,Stimuli/Evan_Stimuli/Hand.png,49,1,1,1,10,2,,,,,,,,,,,,,,,,,,,,,,,,
,evan-run-trial,131,431579,0.0-131.0,1,aug_19_2019,1716,,,,425.83,TRAIN OBSERVE,5,1,1,1,2,4,FALSE,1,10,10,10,Stimuli/Evan_Stimuli/Scissors.png,Stimuli/Evan_Stimuli/Girl.png,Stimuli/Evan_Stimuli/House.png,Stimuli/Evan_Stimuli/Hand.png,49,1,1,1,10,2,,,,,,,,,,,,,,,,,,,,,,,,
,evan-run-trial,132,434315,0.0-132.0,1,aug_19_2019,1716,,,,409.305,TRAIN OBSERVE,5,1,1,1,2,4,FALSE,0,10,10,10,Stimuli/Evan_Stimuli/Scissors.png,Stimuli/Evan_Stimuli/Girl.png,Stimuli/Evan_Stimuli/House.png,Stimuli/Evan_Stimuli/Hand.png,49,1,1,2,10,2,,,,,,,,,,,,,,,,,,,,,,,,
,evan-run-trial,133,436999,0.0-133.0,1,aug_19_2019,1716,,,,362.285,TRAIN OBSERVE,5,1,1,1,2,4,FALSE,1,10,10,10,Stimuli/Evan_Stimuli/Scissors.png,Stimuli/Evan_Stimuli/Girl.png,Stimuli/Evan_Stimuli/House.png,Stimuli/Evan_Stimuli/Hand.png,49,1,1,1,10,2,,,,,,,,,,,,,,,,,,,,,,,,
,evan-info-quiz,134,438780,0.0-134.0,1,aug_19_2019,1716,,,,1276.995,,5,1,,,,,,,,,,,,,,,,,,,,Stimuli/Evan_Stimuli/Hand.png,HAND,TRUE,FALSE,1,51,,,,,,,,,,,,,,,,,,
,evan-run-trial,135,441487,0.0-135.0,1,aug_19_2019,1716,,,,375.855,TRAIN OBSERVE,5,1,1,1,2,4,FALSE,0,10,10,10,Stimuli/Evan_Stimuli/Scissors.png,Stimuli/Evan_Stimuli/Girl.png,Stimuli/Evan_Stimuli/House.png,Stimuli/Evan_Stimuli/Hand.png,49,1,1,2,10,2,,,,,,,,,,,,,,,,,,,,,,,,
,evan-display-text,136,442311,0.0-136.0,1,aug_19_2019,1716,You'll now play the BUTTERFLY slot machine.,"For each game, press 1 to play the machine.",Please pay attention! There will be checks.,823.015,TRAIN INFO,5,1,,,,,,,,,,,,,,,,,,,,,,,,,,,,,,,,,,,,,,,,,,,
,evan-run-trial,137,445039,0.0-137.0,1,aug_19_2019,1716,,,,396.35,TRAIN OBSERVE,5,1,1,1,2,4,FALSE,1,10,10,10,Stimuli/Evan_Stimuli/Scissors.png,Stimuli/Evan_Stimuli/Girl.png,Stimuli/Evan_Stimuli/House.png,Stimuli/Evan_Stimuli/Butterfly.png,49,1,1,1,10,4,,,,,,,,,,,,,,,,,,,,,,,,
,evan-run-trial,138,447793,0.0-138.0,1,aug_19_2019,1716,,,,422.09,TRAIN OBSERVE,5,1,1,1,2,4,FALSE,0,10,10,10,Stimuli/Evan_Stimuli/Scissors.png,Stimuli/Evan_Stimuli/Girl.png,Stimuli/Evan_Stimuli/House.png,Stimuli/Evan_Stimuli/Butterfly.png,49,1,1,2,10,4,,,,,,,,,,,,,,,,,,,,,,,,
,evan-run-trial,139,450612,0.0-139.0,1,aug_19_2019,1716,,,,498.735,TRAIN OBSERVE,5,1,1,1,2,4,FALSE,0,10,10,10,Stimuli/Evan_Stimuli/Scissors.png,Stimuli/Evan_Stimuli/Girl.png,Stimuli/Evan_Stimuli/House.png,Stimuli/Evan_Stimuli/Butterfly.png,49,1,1,2,10,4,,,,,,,,,,,,,,,,,,,,,,,,
,evan-run-trial,140,453297,0.0-140.0,1,aug_19_2019,1716,,,,351.91,TRAIN OBSERVE,5,1,1,1,2,4,FALSE,1,10,10,10,Stimuli/Evan_Stimuli/Scissors.png,Stimuli/Evan_Stimuli/Girl.png,Stimuli/Evan_Stimuli/House.png,Stimuli/Evan_Stimuli/Butterfly.png,49,1,1,1,10,4,,,,,,,,,,,,,,,,,,,,,,,,
,evan-run-trial,141,456083,0.0-141.0,1,aug_19_2019,1716,,,,450.71,TRAIN OBSERVE,5,1,1,1,2,4,FALSE,1,10,10,10,Stimuli/Evan_Stimuli/Scissors.png,Stimuli/Evan_Stimuli/Girl.png,Stimuli/Evan_Stimuli/House.png,Stimuli/Evan_Stimuli/Butterfly.png,49,1,1,1,10,4,,,,,,,,,,,,,,,,,,,,,,,,
,evan-run-trial,142,458852,0.0-142.0,1,aug_19_2019,1716,,,,432.09,TRAIN OBSERVE,5,1,1,1,2,4,FALSE,1,10,10,10,Stimuli/Evan_Stimuli/Scissors.png,Stimuli/Evan_Stimuli/Girl.png,Stimuli/Evan_Stimuli/House.png,Stimuli/Evan_Stimuli/Butterfly.png,49,1,1,1,10,4,,,,,,,,,,,,,,,,,,,,,,,,
,evan-run-trial,143,461688,0.0-143.0,1,aug_19_2019,1716,,,,495.685,TRAIN OBSERVE,5,1,1,1,2,4,FALSE,1,10,10,10,Stimuli/Evan_Stimuli/Scissors.png,Stimuli/Evan_Stimuli/Girl.png,Stimuli/Evan_Stimuli/House.png,Stimuli/Evan_Stimuli/Butterfly.png,49,1,1,1,10,4,,,,,,,,,,,,,,,,,,,,,,,,
,evan-run-trial,144,464456,0.0-144.0,1,aug_19_2019,1716,,,,445.44,TRAIN OBSERVE,5,1,1,1,2,4,FALSE,1,10,10,10,Stimuli/Evan_Stimuli/Scissors.png,Stimuli/Evan_Stimuli/Girl.png,Stimuli/Evan_Stimuli/House.png,Stimuli/Evan_Stimuli/Butterfly.png,49,1,1,1,10,4,,,,,,,,,,,,,,,,,,,,,,,,
,evan-run-trial,145,467175,0.0-145.0,1,aug_19_2019,1716,,,,380.475,TRAIN OBSERVE,5,1,1,1,2,4,FALSE,1,10,10,10,Stimuli/Evan_Stimuli/Scissors.png,Stimuli/Evan_Stimuli/Girl.png,Stimuli/Evan_Stimuli/House.png,Stimuli/Evan_Stimuli/Butterfly.png,49,1,1,1,10,4,,,,,,,,,,,,,,,,,,,,,,,,
,evan-info-quiz,146,469404,0.0-146.0,1,aug_19_2019,1716,,,,1726.085,,5,1,,,,,,,,,,,,,,,,,,,,Stimuli/Evan_Stimuli/Butterfly.png,BUTTERFLY,FALSE,FALSE,1,50,,,,,,,,,,,,,,,,,,
,evan-run-trial,147,472162,0.0-147.0,1,aug_19_2019,1716,,,,424.06,TRAIN OBSERVE,5,1,1,1,2,4,FALSE,1,10,10,10,Stimuli/Evan_Stimuli/Scissors.png,Stimuli/Evan_Stimuli/Girl.png,Stimuli/Evan_Stimuli/House.png,Stimuli/Evan_Stimuli/Butterfly.png,49,1,1,1,10,4,,,,,,,,,,,,,,,,,,,,,,,,
,evan-display-text,148,473063,0.0-148.0,1,aug_19_2019,1716,You'll now make some choices between the HAND and the BUTTERFLY machines to earn points!,Press 1 to select the LEFT machine and 2 to select the RIGHT machine.,"Before each choice, you'll be shown the number of points for each banknote. Pay attention!",899.535,TRAIN INFO,5,1,,,,,,,,,,,,,,,,,,,,,,,,,,,,,,,,,,,,,,,,,,,
,evan-two-stim-choice,149,481188,0.0-149.0,1,aug_19_2019,1716,,,,1399.56,TRAIN CHOICE,5,1,,,1,4,,,,-10,0,Stimuli/Evan_Stimuli/Scissors.png,Stimuli/Evan_Stimuli/Girl.png,,,49,,,2,0,,,,,,,,0.4,0.8,1,1,Stimuli/Evan_Stimuli/Girl.png,TRUE,2,4,LOSS,,,,,,,,,
,evan-two-stim-choice,150,489127,0.0-150.0,1,aug_19_2019,1716,,,,1227.995,TRAIN CHOICE,5,1,,,1,4,,,,0,-10,Stimuli/Evan_Stimuli/Scissors.png,Stimuli/Evan_Stimuli/Girl.png,,,49,,,1,0,,,,,,,,0.4,0.8,1,2,Stimuli/Evan_Stimuli/Scissors.png,TRUE,2,4,LOSS,,,,,,,,,
,evan-two-stim-choice,151,498869,0.0-151.0,1,aug_19_2019,1716,,,,3032.625,TRAIN CHOICE,5,1,,,1,4,,,,0,10,Stimuli/Evan_Stimuli/Scissors.png,Stimuli/Evan_Stimuli/Girl.png,,,49,,,1,0,,,,,,,,0.4,0.8,1,1,Stimuli/Evan_Stimuli/Scissors.png,TRUE,2,4,GAIN,,,,,,,,,
,evan-two-stim-choice,152,506092,0.0-152.0,1,aug_19_2019,1716,,,,522.935,TRAIN CHOICE,5,1,,,1,4,,,,10,0,Stimuli/Evan_Stimuli/Scissors.png,Stimuli/Evan_Stimuli/Girl.png,,,50,,,1,10,,,,,,,,0.4,0.8,2,2,Stimuli/Evan_Stimuli/Scissors.png,TRUE,2,4,GAIN,,,,,,,,,
,evan-display-text,153,506919,0.0-153.0,1,aug_19_2019,1716,You'll now play the PEPPER slot machine.,"For each game, press 1 to play the machine.",Please pay attention! There will be checks.,825.5,TRAIN INFO,4,1,,,,,,,,,,,,,,,,,,,,,,,,,,,,,,,,,,,,,,,,,,,
,evan-run-trial,154,509646,0.0-154.0,1,aug_19_2019,1716,,,,397.24,TRAIN OBSERVE,4,1,1,1,2,4,FALSE,1,10,10,10,Stimuli/Evan_Stimuli/Scissors.png,Stimuli/Evan_Stimuli/Girl.png,Stimuli/Evan_Stimuli/House.png,Stimuli/Evan_Stimuli/Pepper.png,49,1,1,1,10,3,,,,,,,,,,,,,,,,,,,,,,,,
,evan-run-trial,155,512447,0.0-155.0,1,aug_19_2019,1716,,,,469.14,TRAIN OBSERVE,4,1,1,1,2,4,FALSE,0,10,10,10,Stimuli/Evan_Stimuli/Scissors.png,Stimuli/Evan_Stimuli/Girl.png,Stimuli/Evan_Stimuli/House.png,Stimuli/Evan_Stimuli/Pepper.png,49,1,1,2,10,3,,,,,,,,,,,,,,,,,,,,,,,,
,evan-run-trial,156,515316,0.0-156.0,1,aug_19_2019,1716,,,,532.555,TRAIN OBSERVE,4,1,1,1,2,4,FALSE,1,10,10,10,Stimuli/Evan_Stimuli/Scissors.png,Stimuli/Evan_Stimuli/Girl.png,Stimuli/Evan_Stimuli/House.png,Stimuli/Evan_Stimuli/Pepper.png,49,1,1,1,10,3,,,,,,,,,,,,,,,,,,,,,,,,
,evan-run-trial,157,518085,0.0-157.0,1,aug_19_2019,1716,,,,432.66,TRAIN OBSERVE,4,1,1,1,2,4,FALSE,0,10,10,10,Stimuli/Evan_Stimuli/Scissors.png,Stimuli/Evan_Stimuli/Girl.png,Stimuli/Evan_Stimuli/House.png,Stimuli/Evan_Stimuli/Pepper.png,49,1,1,2,10,3,,,,,,,,,,,,,,,,,,,,,,,,
,evan-run-trial,158,520787,0.0-158.0,1,aug_19_2019,1716,,,,367.29,TRAIN OBSERVE,4,1,1,1,2,4,FALSE,1,10,10,10,Stimuli/Evan_Stimuli/Scissors.png,Stimuli/Evan_Stimuli/Girl.png,Stimuli/Evan_Stimuli/House.png,Stimuli/Evan_Stimuli/Pepper.png,49,1,1,1,10,3,,,,,,,,,,,,,,,,,,,,,,,,
,evan-run-trial,159,523506,0.0-159.0,1,aug_19_2019,1716,,,,383.54,TRAIN OBSERVE,4,1,1,1,2,4,FALSE,1,10,10,10,Stimuli/Evan_Stimuli/Scissors.png,Stimuli/Evan_Stimuli/Girl.png,Stimuli/Evan_Stimuli/House.png,Stimuli/Evan_Stimuli/Pepper.png,49,1,1,1,10,3,,,,,,,,,,,,,,,,,,,,,,,,
,evan-info-quiz,160,524652,0.0-160.0,1,aug_19_2019,1716,,,,642.59,,4,1,,,,,,,,,,,,,,,,,,,,Stimuli/Evan_Stimuli/Scissors.png,SCISSORS,FALSE,TRUE,1,50,,,,,,,,,,,,,,,,,,
,evan-run-trial,161,527377,0.0-161.0,1,aug_19_2019,1716,,,,392.72,TRAIN OBSERVE,4,1,1,1,2,4,FALSE,1,10,10,10,Stimuli/Evan_Stimuli/Scissors.png,Stimuli/Evan_Stimuli/Girl.png,Stimuli/Evan_Stimuli/House.png,Stimuli/Evan_Stimuli/Pepper.png,49,1,1,1,10,3,,,,,,,,,,,,,,,,,,,,,,,,
,evan-run-trial,162,530162,0.0-162.0,1,aug_19_2019,1716,,,,451.4899999,TRAIN OBSERVE,4,1,1,1,2,4,FALSE,1,10,10,10,Stimuli/Evan_Stimuli/Scissors.png,Stimuli/Evan_Stimuli/Girl.png,Stimuli/Evan_Stimuli/House.png,Stimuli/Evan_Stimuli/Pepper.png,49,1,1,1,10,3,,,,,,,,,,,,,,,,,,,,,,,,
,evan-run-trial,163,532932,0.0-163.0,1,aug_19_2019,1716,,,,434.435,TRAIN OBSERVE,4,1,1,1,2,4,FALSE,0,10,10,10,Stimuli/Evan_Stimuli/Scissors.png,Stimuli/Evan_Stimuli/Girl.png,Stimuli/Evan_Stimuli/House.png,Stimuli/Evan_Stimuli/Pepper.png,49,1,1,2,10,3,,,,,,,,,,,,,,,,,,,,,,,,
,evan-run-trial,164,535784,0.0-164.0,1,aug_19_2019,1716,,,,510.39,TRAIN OBSERVE,4,1,1,1,2,4,FALSE,0,10,10,10,Stimuli/Evan_Stimuli/Scissors.png,Stimuli/Evan_Stimuli/Girl.png,Stimuli/Evan_Stimuli/House.png,Stimuli/Evan_Stimuli/Pepper.png,49,1,1,2,10,3,,,,,,,,,,,,,,,,,,,,,,,,
,evan-display-text,165,536551,0.0-165.0,1,aug_19_2019,1716,You'll now play the HAND slot machine.,"For each game, press 1 to play the machine.",Please pay attention! There will be checks.,765.53,TRAIN INFO,4,1,,,,,,,,,,,,,,,,,,,,,,,,,,,,,,,,,,,,,,,,,,,
,evan-run-trial,166,539286,0.0-166.0,1,aug_19_2019,1716,,,,399.42,TRAIN OBSERVE,4,1,1,1,2,4,FALSE,0,10,10,10,Stimuli/Evan_Stimuli/Scissors.png,Stimuli/Evan_Stimuli/Girl.png,Stimuli/Evan_Stimuli/House.png,Stimuli/Evan_Stimuli/Hand.png,49,1,1,2,10,2,,,,,,,,,,,,,,,,,,,,,,,,
,evan-run-trial,167,542038,0.0-167.0,1,aug_19_2019,1716,,,,414.795,TRAIN OBSERVE,4,1,1,1,2,4,FALSE,1,10,10,10,Stimuli/Evan_Stimuli/Scissors.png,Stimuli/Evan_Stimuli/Girl.png,Stimuli/Evan_Stimuli/House.png,Stimuli/Evan_Stimuli/Hand.png,49,1,1,1,10,2,,,,,,,,,,,,,,,,,,,,,,,,
,evan-run-trial,168,544792,0.0-168.0,1,aug_19_2019,1716,,,,414.405,TRAIN OBSERVE,4,1,1,1,2,4,FALSE,1,10,10,10,Stimuli/Evan_Stimuli/Scissors.png,Stimuli/Evan_Stimuli/Girl.png,Stimuli/Evan_Stimuli/House.png,Stimuli/Evan_Stimuli/Hand.png,49,1,1,1,10,2,,,,,,,,,,,,,,,,,,,,,,,,
,evan-run-trial,169,548796,0.0-169.0,1,aug_19_2019,1716,,,,1676.385,TRAIN OBSERVE,4,1,1,1,2,4,FALSE,1,10,10,10,Stimuli/Evan_Stimuli/Scissors.png,Stimuli/Evan_Stimuli/Girl.png,Stimuli/Evan_Stimuli/House.png,Stimuli/Evan_Stimuli/Hand.png,49,1,1,1,10,2,,,,,,,,,,,,,,,,,,,,,,,,
,evan-info-quiz,170,550556,0.0-170.0,1,aug_19_2019,1716,,,,1257.175,,4,1,,,,,,,,,,,,,,,,,,,,Stimuli/Evan_Stimuli/Hand.png,HAND,FALSE,FALSE,1,51,,,,,,,,,,,,,,,,,,
,evan-run-trial,171,553298,0.0-171.0,1,aug_19_2019,1716,,,,407.99,TRAIN OBSERVE,4,1,1,1,2,4,FALSE,0,10,10,10,Stimuli/Evan_Stimuli/Scissors.png,Stimuli/Evan_Stimuli/Girl.png,Stimuli/Evan_Stimuli/House.png,Stimuli/Evan_Stimuli/Hand.png,49,1,1,2,10,2,,,,,,,,,,,,,,,,,,,,,,,,
,evan-run-trial,172,556135,0.0-172.0,1,aug_19_2019,1716,,,,499.4349999,TRAIN OBSERVE,4,1,1,1,2,4,FALSE,0,10,10,10,Stimuli/Evan_Stimuli/Scissors.png,Stimuli/Evan_Stimuli/Girl.png,Stimuli/Evan_Stimuli/House.png,Stimuli/Evan_Stimuli/Hand.png,49,1,1,2,10,2,,,,,,,,,,,,,,,,,,,,,,,,
,evan-info-quiz,173,558813,0.0-173.0,1,aug_19_2019,1716,,,,2173.94,,4,1,,,,,,,,,,,,,,,,,,,,Stimuli/Evan_Stimuli/Hand.png,HAND,FALSE,FALSE,1,49,,,,,,,,,,,,,,,,,,
,evan-run-trial,174,561605,0.0-174.0,1,aug_19_2019,1716,,,,455.995,TRAIN OBSERVE,4,1,1,1,2,4,FALSE,0,10,10,10,Stimuli/Evan_Stimuli/Scissors.png,Stimuli/Evan_Stimuli/Girl.png,Stimuli/Evan_Stimuli/House.png,Stimuli/Evan_Stimuli/Hand.png,49,1,1,2,10,2,,,,,,,,,,,,,,,,,,,,,,,,
,evan-info-quiz,175,563292,0.0-175.0,1,aug_19_2019,1716,,,,1182.96,,4,1,,,,,,,,,,,,,,,,,,,,Stimuli/Evan_Stimuli/Hand.png,HAND,TRUE,FALSE,1,52,,,,,,,,,,,,,,,,,,
,evan-run-trial,176,566043,0.0-176.0,1,aug_19_2019,1716,,,,424.31,TRAIN OBSERVE,4,1,1,1,2,4,FALSE,1,10,10,10,Stimuli/Evan_Stimuli/Scissors.png,Stimuli/Evan_Stimuli/Girl.png,Stimuli/Evan_Stimuli/House.png,Stimuli/Evan_Stimuli/Hand.png,49,1,1,1,10,2,,,,,,,,,,,,,,,,,,,,,,,,
,evan-info-quiz,177,567965,0.0-177.0,1,aug_19_2019,1716,,,,1417.195,,4,1,,,,,,,,,,,,,,,,,,,,Stimuli/Evan_Stimuli/Hand.png,HAND,TRUE,FALSE,1,52,,,,,,,,,,,,,,,,,,
,evan-run-trial,178,570747,0.0-178.0,1,aug_19_2019,1716,,,,455.115,TRAIN OBSERVE,4,1,1,1,2,4,FALSE,0,10,10,10,Stimuli/Evan_Stimuli/Scissors.png,Stimuli/Evan_Stimuli/Girl.png,Stimuli/Evan_Stimuli/House.png,Stimuli/Evan_Stimuli/Hand.png,49,1,1,2,10,2,,,,,,,,,,,,,,,,,,,,,,,,
,evan-info-quiz,179,572252,0.0-179.0,1,aug_19_2019,1716,,,,1001.98,,4,1,,,,,,,,,,,,,,,,,,,,Stimuli/Evan_Stimuli/Girl.png,GIRL,TRUE,TRUE,1,49,,,,,,,,,,,,,,,,,,
,evan-run-trial,180,574918,0.0-180.0,1,aug_19_2019,1716,,,,328.085,TRAIN OBSERVE,4,1,1,1,2,4,FALSE,0,10,10,10,Stimuli/Evan_Stimuli/Scissors.png,Stimuli/Evan_Stimuli/Girl.png,Stimuli/Evan_Stimuli/House.png,Stimuli/Evan_Stimuli/Hand.png,49,1,1,2,10,2,,,,,,,,,,,,,,,,,,,,,,,,
,evan-display-text,181,576007,0.0-181.0,1,aug_19_2019,1716,You'll now make some choices between the HAND and the PEPPER machines to earn points!,Press 1 to select the LEFT machine and 2 to select the RIGHT machine.,"Before each choice, you'll be shown the number of points for each banknote. Pay attention!",1088.095,TRAIN INFO,4,1,,,,,,,,,,,,,,,,,,,,,,,,,,,,,,,,,,,,,,,,,,,
,evan-two-stim-choice,182,584375,0.0-182.0,1,aug_19_2019,1716,,,,1678.755,TRAIN CHOICE,4,1,,,1,4,,,,10,0,Stimuli/Evan_Stimuli/Scissors.png,Stimuli/Evan_Stimuli/Girl.png,,,49,,,2,0,,,,,,,,0.4,0.6,1,2,Stimuli/Evan_Stimuli/Girl.png,TRUE,2,3,GAIN,,,,,,,,,
,evan-two-stim-choice,183,591999,0.0-183.0,1,aug_19_2019,1716,,,,919.525,TRAIN CHOICE,4,1,,,1,4,,,,-10,0,Stimuli/Evan_Stimuli/Scissors.png,Stimuli/Evan_Stimuli/Girl.png,,,50,,,1,-10,,,,,,,,0.4,0.6,2,1,Stimuli/Evan_Stimuli/Scissors.png,TRUE,2,3,LOSS,,,,,,,,,
,evan-two-stim-choice,184,599339,0.0-184.0,1,aug_19_2019,1716,,,,623.83,TRAIN CHOICE,4,1,,,1,4,,,,0,10,Stimuli/Evan_Stimuli/Scissors.png,Stimuli/Evan_Stimuli/Girl.png,,,49,,,1,0,,,,,,,,0.4,0.6,1,1,Stimuli/Evan_Stimuli/Scissors.png,TRUE,2,3,GAIN,,,,,,,,,
,evan-two-stim-choice,185,606612,0.0-185.0,1,aug_19_2019,1716,,,,566.095,TRAIN CHOICE,4,1,,,1,4,,,,0,-10,Stimuli/Evan_Stimuli/Scissors.png,Stimuli/Evan_Stimuli/Girl.png,,,49,,,1,0,,,,,,,,0.4,0.6,1,2,Stimuli/Evan_Stimuli/Scissors.png,TRUE,2,3,LOSS,,,,,,,,,
,evan-display-text,186,608487,0.0-186.0,1,aug_19_2019,1716,Great job! For the rest of this task you'll play both types of games in random orders.,,,1874.58,TRAIN INFO,,,,,,,,,,,,,,,,,,,,,,,,,,,,,,,,,,,,,,,,,,,,,
,evan-run-trial,187,611381,0.0-187.0,1,aug_19_2019,1716,,,,557.475,TRAIN OBSERVE,,,1,1,2,4,FALSE,0,10,10,10,Stimuli/Evan_Stimuli/Scissors.png,Stimuli/Evan_Stimuli/Girl.png,Stimuli/Evan_Stimuli/House.png,Stimuli/Evan_Stimuli/Zebra.png,49,1,1,2,10,1,,,,,,,,,,,,,,,,,,,,,,,,
,evan-run-trial,188,614183,0.0-188.0,1,aug_19_2019,1716,,,,461.185,TRAIN OBSERVE,,,1,1,2,4,FALSE,0,10,10,10,Stimuli/Evan_Stimuli/Scissors.png,Stimuli/Evan_Stimuli/Girl.png,Stimuli/Evan_Stimuli/House.png,Stimuli/Evan_Stimuli/Zebra.png,49,1,1,2,10,1,,,,,,,,,,,,,,,,,,,,,,,,
,evan-run-trial,189,616970,0.0-189.0,1,aug_19_2019,1716,,,,460.69,TRAIN OBSERVE,,,1,1,2,4,FALSE,0,10,10,10,Stimuli/Evan_Stimuli/Scissors.png,Stimuli/Evan_Stimuli/Girl.png,Stimuli/Evan_Stimuli/House.png,Stimuli/Evan_Stimuli/Zebra.png,49,1,1,2,10,1,,,,,,,,,,,,,,,,,,,,,,,,
,evan-run-trial,190,619823,0.0-190.0,1,aug_19_2019,1716,,,,524.075,TRAIN OBSERVE,,,1,1,2,4,FALSE,0,10,10,10,Stimuli/Evan_Stimuli/Scissors.png,Stimuli/Evan_Stimuli/Girl.png,Stimuli/Evan_Stimuli/House.png,Stimuli/Evan_Stimuli/Zebra.png,49,1,1,2,10,1,,,,,,,,,,,,,,,,,,,,,,,,
,evan-run-trial,191,622607,0.0-191.0,1,aug_19_2019,1716,,,,454.37,TRAIN OBSERVE,,,1,1,2,4,FALSE,1,10,10,10,Stimuli/Evan_Stimuli/Scissors.png,Stimuli/Evan_Stimuli/Girl.png,Stimuli/Evan_Stimuli/House.png,Stimuli/Evan_Stimuli/Zebra.png,49,1,1,1,10,1,,,,,,,,,,,,,,,,,,,,,,,,
,evan-two-stim-choice,192,632399,0.0-192.0,1,aug_19_2019,1716,,,,3087.965,TRAIN CHOICE,,,,,1,4,,,,0,-10,Stimuli/Evan_Stimuli/Scissors.png,Stimuli/Evan_Stimuli/Girl.png,,,50,,,2,-10,,,,,,,,0.2,0.4,2,2,Stimuli/Evan_Stimuli/Girl.png,TRUE,1,2,LOSS,,,,,,,,,
,evan-two-stim-choice,193,640624,0.0-193.0,1,aug_19_2019,1716,,,,1504.78,TRAIN CHOICE,,,,,1,4,,,,0,-10,Stimuli/Evan_Stimuli/Scissors.png,Stimuli/Evan_Stimuli/Girl.png,,,50,,,1,0,,,,,,,,0.4,0.8,2,2,Stimuli/Evan_Stimuli/Scissors.png,TRUE,2,4,LOSS,,,,,,,,,
,evan-two-stim-choice,194,648696,0.0-194.0,1,aug_19_2019,1716,,,,1377.245,TRAIN CHOICE,,,,,1,4,,,,-10,0,Stimuli/Evan_Stimuli/Scissors.png,Stimuli/Evan_Stimuli/Girl.png,,,50,,,1,-10,,,,,,,,0.2,0.8,2,1,Stimuli/Evan_Stimuli/Scissors.png,TRUE,1,4,LOSS,,,,,,,,,
,evan-run-trial,195,651667,0.0-195.0,1,aug_19_2019,1716,,,,652.18,TRAIN OBSERVE,,,1,1,2,4,FALSE,0,10,10,10,Stimuli/Evan_Stimuli/Scissors.png,Stimuli/Evan_Stimuli/Girl.png,Stimuli/Evan_Stimuli/House.png,Stimuli/Evan_Stimuli/Pepper.png,49,1,1,2,10,3,,,,,,,,,,,,,,,,,,,,,,,,
,evan-run-trial,196,654369,0.0-196.0,1,aug_19_2019,1716,,,,369.695,TRAIN OBSERVE,,,1,1,2,4,FALSE,1,10,10,10,Stimuli/Evan_Stimuli/Scissors.png,Stimuli/Evan_Stimuli/Girl.png,Stimuli/Evan_Stimuli/House.png,Stimuli/Evan_Stimuli/Pepper.png,49,1,1,1,10,3,,,,,,,,,,,,,,,,,,,,,,,,
,evan-run-trial,197,657087,0.0-197.0,1,aug_19_2019,1716,,,,387.37,TRAIN OBSERVE,,,1,1,2,4,FALSE,1,10,10,10,Stimuli/Evan_Stimuli/Scissors.png,Stimuli/Evan_Stimuli/Girl.png,Stimuli/Evan_Stimuli/House.png,Stimuli/Evan_Stimuli/Pepper.png,49,1,1,1,10,3,,,,,,,,,,,,,,,,,,,,,,,,
,evan-run-trial,198,659789,0.0-198.0,1,aug_19_2019,1716,,,,373.265,TRAIN OBSERVE,,,1,1,2,4,FALSE,0,10,10,10,Stimuli/Evan_Stimuli/Scissors.png,Stimuli/Evan_Stimuli/Girl.png,Stimuli/Evan_Stimuli/House.png,Stimuli/Evan_Stimuli/Pepper.png,49,1,1,2,10,3,,,,,,,,,,,,,,,,,,,,,,,,
,evan-run-trial,199,662509,0.0-199.0,1,aug_19_2019,1716,,,,391.75,TRAIN OBSERVE,,,1,1,2,4,FALSE,1,10,10,10,Stimuli/Evan_Stimuli/Scissors.png,Stimuli/Evan_Stimuli/Girl.png,Stimuli/Evan_Stimuli/House.png,Stimuli/Evan_Stimuli/Pepper.png,49,1,1,1,10,3,,,,,,,,,,,,,,,,,,,,,,,,
,evan-two-stim-choice,200,670364,0.0-200.0,1,aug_19_2019,1716,,,,1154.195,TRAIN CHOICE,,,,,1,4,,,,0,10,Stimuli/Evan_Stimuli/Scissors.png,Stimuli/Evan_Stimuli/Girl.png,,,49,,,1,0,,,,,,,,0.2,0.4,1,1,Stimuli/Evan_Stimuli/Scissors.png,TRUE,1,2,GAIN,,,,,,,,,
,evan-two-stim-choice,201,678571,0.0-201.0,1,aug_19_2019,1716,,,,1489.865,TRAIN CHOICE,,,,,1,4,,,,0,-10,Stimuli/Evan_Stimuli/Scissors.png,Stimuli/Evan_Stimuli/Girl.png,,,50,,,1,0,,,,,,,,0.2,0.8,2,2,Stimuli/Evan_Stimuli/Scissors.png,TRUE,1,4,LOSS,,,,,,,,,
,evan-two-stim-choice,202,686561,0.0-202.0,1,aug_19_2019,1716,,,,1282.715,TRAIN CHOICE,,,,,1,4,,,,0,10,Stimuli/Evan_Stimuli/Scissors.png,Stimuli/Evan_Stimuli/Girl.png,,,49,,,1,0,,,,,,,,0.6,0.8,1,1,Stimuli/Evan_Stimuli/Scissors.png,TRUE,3,4,GAIN,,,,,,,,,
,evan-run-trial,203,689648,0.0-203.0,1,aug_19_2019,1716,,,,770.86,TRAIN OBSERVE,,,1,1,2,4,FALSE,0,10,10,10,Stimuli/Evan_Stimuli/Scissors.png,Stimuli/Evan_Stimuli/Girl.png,Stimuli/Evan_Stimuli/House.png,Stimuli/Evan_Stimuli/Hand.png,49,1,1,2,10,2,,,,,,,,,,,,,,,,,,,,,,,,
,evan-run-trial,204,692384,0.0-204.0,1,aug_19_2019,1716,,,,403.065,TRAIN OBSERVE,,,1,1,2,4,FALSE,0,10,10,10,Stimuli/Evan_Stimuli/Scissors.png,Stimuli/Evan_Stimuli/Girl.png,Stimuli/Evan_Stimuli/House.png,Stimuli/Evan_Stimuli/Hand.png,49,1,1,2,10,2,,,,,,,,,,,,,,,,,,,,,,,,
,evan-run-trial,205,695186,0.0-205.0,1,aug_19_2019,1716,,,,468.325,TRAIN OBSERVE,,,1,1,2,4,FALSE,1,10,10,10,Stimuli/Evan_Stimuli/Scissors.png,Stimuli/Evan_Stimuli/Girl.png,Stimuli/Evan_Stimuli/House.png,Stimuli/Evan_Stimuli/Hand.png,49,1,1,1,10,2,,,,,,,,,,,,,,,,,,,,,,,,
,evan-run-trial,206,697905,0.0-206.0,1,aug_19_2019,1716,,,,385.715,TRAIN OBSERVE,,,1,1,2,4,FALSE,1,10,10,10,Stimuli/Evan_Stimuli/Scissors.png,Stimuli/Evan_Stimuli/Girl.png,Stimuli/Evan_Stimuli/House.png,Stimuli/Evan_Stimuli/Hand.png,49,1,1,1,10,2,,,,,,,,,,,,,,,,,,,,,,,,
,evan-run-trial,207,700574,0.0-207.0,1,aug_19_2019,1716,,,,338.38,TRAIN OBSERVE,,,1,1,2,4,FALSE,0,10,10,10,Stimuli/Evan_Stimuli/Scissors.png,Stimuli/Evan_Stimuli/Girl.png,Stimuli/Evan_Stimuli/House.png,Stimuli/Evan_Stimuli/Hand.png,49,1,1,2,10,2,,,,,,,,,,,,,,,,,,,,,,,,
,evan-two-stim-choice,208,708830,0.0-208.0,1,aug_19_2019,1716,,,,1537.995,TRAIN CHOICE,,,,,1,4,,,,10,0,Stimuli/Evan_Stimuli/Scissors.png,Stimuli/Evan_Stimuli/Girl.png,,,50,,,1,10,,,,,,,,0.4,0.6,2,1,Stimuli/Evan_Stimuli/Scissors.png,FALSE,2,3,GAIN,,,,,,,,,
,evan-two-stim-choice,209,718139,0.0-209.0,1,aug_19_2019,1716,,,,2591.925,TRAIN CHOICE,,,,,1,4,,,,0,10,Stimuli/Evan_Stimuli/Scissors.png,Stimuli/Evan_Stimuli/Girl.png,,,49,,,2,10,,,,,,,,0.2,0.6,1,1,Stimuli/Evan_Stimuli/Girl.png,TRUE,1,3,GAIN,,,,,,,,,
,evan-two-stim-choice,210,726979,0.0-210.0,1,aug_19_2019,1716,,,,2148.305,TRAIN CHOICE,,,,,1,4,,,,0,10,Stimuli/Evan_Stimuli/Scissors.png,Stimuli/Evan_Stimuli/Girl.png,,,50,,,1,0,,,,,,,,0.4,0.6,2,1,Stimuli/Evan_Stimuli/Scissors.png,TRUE,2,3,GAIN,,,,,,,,,
,evan-run-trial,211,729966,0.0-211.0,1,aug_19_2019,1716,,,,656.48,TRAIN OBSERVE,,,1,1,2,4,FALSE,1,10,10,10,Stimuli/Evan_Stimuli/Scissors.png,Stimuli/Evan_Stimuli/Girl.png,Stimuli/Evan_Stimuli/House.png,Stimuli/Evan_Stimuli/Butterfly.png,49,1,1,1,10,4,,,,,,,,,,,,,,,,,,,,,,,,
,evan-run-trial,212,732751,0.0-212.0,1,aug_19_2019,1716,,,,455.255,TRAIN OBSERVE,,,1,1,2,4,FALSE,1,10,10,10,Stimuli/Evan_Stimuli/Scissors.png,Stimuli/Evan_Stimuli/Girl.png,Stimuli/Evan_Stimuli/House.png,Stimuli/Evan_Stimuli/Butterfly.png,49,1,1,1,10,4,,,,,,,,,,,,,,,,,,,,,,,,
,evan-run-trial,213,735504,0.0-213.0,1,aug_19_2019,1716,,,,420.87,TRAIN OBSERVE,,,1,1,2,4,FALSE,0,10,10,10,Stimuli/Evan_Stimuli/Scissors.png,Stimuli/Evan_Stimuli/Girl.png,Stimuli/Evan_Stimuli/House.png,Stimuli/Evan_Stimuli/Butterfly.png,49,1,1,2,10,4,,,,,,,,,,,,,,,,,,,,,,,,
,evan-run-trial,214,738240,0.0-214.0,1,aug_19_2019,1716,,,,404.695,TRAIN OBSERVE,,,1,1,2,4,FALSE,1,10,10,10,Stimuli/Evan_Stimuli/Scissors.png,Stimuli/Evan_Stimuli/Girl.png,Stimuli/Evan_Stimuli/House.png,Stimuli/Evan_Stimuli/Butterfly.png,49,1,1,1,10,4,,,,,,,,,,,,,,,,,,,,,,,,
,evan-run-trial,215,741059,0.0-215.0,1,aug_19_2019,1716,,,,484.555,TRAIN OBSERVE,,,1,1,2,4,FALSE,1,10,10,10,Stimuli/Evan_Stimuli/Scissors.png,Stimuli/Evan_Stimuli/Girl.png,Stimuli/Evan_Stimuli/House.png,Stimuli/Evan_Stimuli/Butterfly.png,49,1,1,1,10,4,,,,,,,,,,,,,,,,,,,,,,,,
,evan-two-stim-choice,216,748581,0.0-216.0,1,aug_19_2019,1716,,,,827.865,TRAIN CHOICE,,,,,1,4,,,,10,0,Stimuli/Evan_Stimuli/Scissors.png,Stimuli/Evan_Stimuli/Girl.png,,,49,,,1,10,,,,,,,,0.6,0.8,1,2,Stimuli/Evan_Stimuli/Scissors.png,TRUE,3,4,GAIN,,,,,,,,,
,evan-two-stim-choice,217,756456,0.0-217.0,1,aug_19_2019,1716,,,,1162.015,TRAIN CHOICE,,,,,1,4,,,,10,0,Stimuli/Evan_Stimuli/Scissors.png,Stimuli/Evan_Stimuli/Girl.png,,,50,,,1,10,,,,,,,,0.2,0.6,2,2,Stimuli/Evan_Stimuli/Scissors.png,TRUE,1,3,GAIN,,,,,,,,,
,evan-two-stim-choice,218,764178,0.0-218.0,1,aug_19_2019,1716,,,,1000.93,TRAIN CHOICE,,,,,1,4,,,,0,10,Stimuli/Evan_Stimuli/Scissors.png,Stimuli/Evan_Stimuli/Girl.png,,,50,,,1,0,,,,,,,,0.4,0.8,2,1,Stimuli/Evan_Stimuli/Scissors.png,TRUE,2,4,GAIN,,,,,,,,,
,evan-run-trial,219,767081,0.0-219.0,1,aug_19_2019,1716,,,,578.635,TRAIN OBSERVE,,,1,1,2,4,FALSE,1,10,10,10,Stimuli/Evan_Stimuli/Scissors.png,Stimuli/Evan_Stimuli/Girl.png,Stimuli/Evan_Stimuli/House.png,Stimuli/Evan_Stimuli/Pepper.png,49,1,1,1,10,3,,,,,,,,,,,,,,,,,,,,,,,,
,evan-run-trial,220,769867,0.0-220.0,1,aug_19_2019,1716,,,,459.25,TRAIN OBSERVE,,,1,1,2,4,FALSE,0,10,10,10,Stimuli/Evan_Stimuli/Scissors.png,Stimuli/Evan_Stimuli/Girl.png,Stimuli/Evan_Stimuli/House.png,Stimuli/Evan_Stimuli/Pepper.png,49,1,1,2,10,3,,,,,,,,,,,,,,,,,,,,,,,,
,evan-run-trial,221,772602,0.0-221.0,1,aug_19_2019,1716,,,,409.2,TRAIN OBSERVE,,,1,1,2,4,FALSE,1,10,10,10,Stimuli/Evan_Stimuli/Scissors.png,Stimuli/Evan_Stimuli/Girl.png,Stimuli/Evan_Stimuli/House.png,Stimuli/Evan_Stimuli/Pepper.png,49,1,1,1,10,3,,,,,,,,,,,,,,,,,,,,,,,,
,evan-run-trial,222,775371,0.0-222.0,1,aug_19_2019,1716,,,,442.555,TRAIN OBSERVE,,,1,1,2,4,FALSE,1,10,10,10,Stimuli/Evan_Stimuli/Scissors.png,Stimuli/Evan_Stimuli/Girl.png,Stimuli/Evan_Stimuli/House.png,Stimuli/Evan_Stimuli/Pepper.png,49,1,1,1,10,3,,,,,,,,,,,,,,,,,,,,,,,,
,evan-run-trial,223,778089,0.0-223.0,1,aug_19_2019,1716,,,,394.245,TRAIN OBSERVE,,,1,1,2,4,FALSE,0,10,10,10,Stimuli/Evan_Stimuli/Scissors.png,Stimuli/Evan_Stimuli/Girl.png,Stimuli/Evan_Stimuli/House.png,Stimuli/Evan_Stimuli/Pepper.png,49,1,1,2,10,3,,,,,,,,,,,,,,,,,,,,,,,,
,evan-two-stim-choice,224,786079,0.0-224.0,1,aug_19_2019,1716,,,,1285.42,TRAIN CHOICE,,,,,1,4,,,,-10,0,Stimuli/Evan_Stimuli/Scissors.png,Stimuli/Evan_Stimuli/Girl.png,,,49,,,2,0,,,,,,,,0.2,0.6,1,1,Stimuli/Evan_Stimuli/Girl.png,TRUE,1,3,LOSS,,,,,,,,,
,evan-two-stim-choice,225,794454,0.0-225.0,1,aug_19_2019,1716,,,,1679.82,TRAIN CHOICE,,,,,1,4,,,,10,0,Stimuli/Evan_Stimuli/Scissors.png,Stimuli/Evan_Stimuli/Girl.png,,,50,,,1,10,,,,,,,,0.2,0.8,2,2,Stimuli/Evan_Stimuli/Scissors.png,TRUE,1,4,GAIN,,,,,,,,,
,evan-two-stim-choice,226,803194,0.0-226.0,1,aug_19_2019,1716,,,,2041.775,TRAIN CHOICE,,,,,1,4,,,,10,0,Stimuli/Evan_Stimuli/Scissors.png,Stimuli/Evan_Stimuli/Girl.png,,,49,,,1,10,,,,,,,,0.2,0.4,1,2,Stimuli/Evan_Stimuli/Scissors.png,TRUE,1,2,GAIN,,,,,,,,,
,evan-run-trial,227,806164,0.0-227.0,1,aug_19_2019,1716,,,,632.08,TRAIN OBSERVE,,,1,1,2,4,FALSE,0,10,10,10,Stimuli/Evan_Stimuli/Scissors.png,Stimuli/Evan_Stimuli/Girl.png,Stimuli/Evan_Stimuli/House.png,Stimuli/Evan_Stimuli/Hand.png,49,1,1,2,10,2,,,,,,,,,,,,,,,,,,,,,,,,
,evan-run-trial,228,808982,0.0-228.0,1,aug_19_2019,1716,,,,480.86,TRAIN OBSERVE,,,1,1,2,4,FALSE,1,10,10,10,Stimuli/Evan_Stimuli/Scissors.png,Stimuli/Evan_Stimuli/Girl.png,Stimuli/Evan_Stimuli/House.png,Stimuli/Evan_Stimuli/Hand.png,49,1,1,1,10,2,,,,,,,,,,,,,,,,,,,,,,,,
,evan-run-trial,229,811702,0.0-229.0,1,aug_19_2019,1716,,,,382.45,TRAIN OBSERVE,,,1,1,2,4,FALSE,0,10,10,10,Stimuli/Evan_Stimuli/Scissors.png,Stimuli/Evan_Stimuli/Girl.png,Stimuli/Evan_Stimuli/House.png,Stimuli/Evan_Stimuli/Hand.png,49,1,1,2,10,2,,,,,,,,,,,,,,,,,,,,,,,,
,evan-run-trial,230,814354,0.0-230.0,1,aug_19_2019,1716,,,,318.575,TRAIN OBSERVE,,,1,1,2,4,FALSE,0,10,10,10,Stimuli/Evan_Stimuli/Scissors.png,Stimuli/Evan_Stimuli/Girl.png,Stimuli/Evan_Stimuli/House.png,Stimuli/Evan_Stimuli/Hand.png,49,1,1,2,10,2,,,,,,,,,,,,,,,,,,,,,,,,
,evan-run-trial,231,817174,0.0-231.0,1,aug_19_2019,1716,,,,482.75,TRAIN OBSERVE,,,1,1,2,4,FALSE,1,10,10,10,Stimuli/Evan_Stimuli/Scissors.png,Stimuli/Evan_Stimuli/Girl.png,Stimuli/Evan_Stimuli/House.png,Stimuli/Evan_Stimuli/Hand.png,49,1,1,1,10,2,,,,,,,,,,,,,,,,,,,,,,,,
,evan-two-stim-choice,232,824912,0.0-232.0,1,aug_19_2019,1716,,,,1034.54,TRAIN CHOICE,,,,,1,4,,,,10,0,Stimuli/Evan_Stimuli/Scissors.png,Stimuli/Evan_Stimuli/Girl.png,,,49,,,1,10,,,,,,,,0.4,0.6,1,2,Stimuli/Evan_Stimuli/Scissors.png,TRUE,2,3,GAIN,,,,,,,,,
,evan-two-stim-choice,233,832854,0.0-233.0,1,aug_19_2019,1716,,,,1246.285,TRAIN CHOICE,,,,,1,4,,,,-10,0,Stimuli/Evan_Stimuli/Scissors.png,Stimuli/Evan_Stimuli/Girl.png,,,50,,,2,0,,,,,,,,0.2,0.8,2,1,Stimuli/Evan_Stimuli/Girl.png,TRUE,1,4,LOSS,,,,,,,,,
,evan-two-stim-choice,234,840375,0.0-234.0,1,aug_19_2019,1716,,,,825.92,TRAIN CHOICE,,,,,1,4,,,,-10,0,Stimuli/Evan_Stimuli/Scissors.png,Stimuli/Evan_Stimuli/Girl.png,,,49,,,1,-10,,,,,,,,0.4,0.8,1,1,Stimuli/Evan_Stimuli/Scissors.png,TRUE,2,4,LOSS,,,,,,,,,
,evan-run-trial,235,844480,0.0-235.0,1,aug_19_2019,1716,,,,1789.22,TRAIN OBSERVE,,,1,1,2,4,FALSE,0,10,10,10,Stimuli/Evan_Stimuli/Scissors.png,Stimuli/Evan_Stimuli/Girl.png,Stimuli/Evan_Stimuli/House.png,Stimuli/Evan_Stimuli/Zebra.png,49,1,1,2,10,1,,,,,,,,,,,,,,,,,,,,,,,,
,evan-run-trial,236,847483,0.0-236.0,1,aug_19_2019,1716,,,,675.77,TRAIN OBSERVE,,,1,1,2,4,FALSE,0,10,10,10,Stimuli/Evan_Stimuli/Scissors.png,Stimuli/Evan_Stimuli/Girl.png,Stimuli/Evan_Stimuli/House.png,Stimuli/Evan_Stimuli/Zebra.png,49,1,1,2,10,1,,,,,,,,,,,,,,,,,,,,,,,,
,evan-run-trial,237,850569,0.0-237.0,1,aug_19_2019,1716,,,,743.385,TRAIN OBSERVE,,,1,1,2,4,FALSE,0,10,10,10,Stimuli/Evan_Stimuli/Scissors.png,Stimuli/Evan_Stimuli/Girl.png,Stimuli/Evan_Stimuli/House.png,Stimuli/Evan_Stimuli/Zebra.png,49,1,1,2,10,1,,,,,,,,,,,,,,,,,,,,,,,,
,evan-run-trial,238,853472,0.0-238.0,1,aug_19_2019,1716,,,,586.585,TRAIN OBSERVE,,,1,1,2,4,FALSE,1,10,10,10,Stimuli/Evan_Stimuli/Scissors.png,Stimuli/Evan_Stimuli/Girl.png,Stimuli/Evan_Stimuli/House.png,Stimuli/Evan_Stimuli/Zebra.png,49,1,1,1,10,1,,,,,,,,,,,,,,,,,,,,,,,,
,evan-run-trial,239,856790,0.0-239.0,1,aug_19_2019,1716,,,,979.13,TRAIN OBSERVE,,,1,1,2,4,FALSE,0,10,10,10,Stimuli/Evan_Stimuli/Scissors.png,Stimuli/Evan_Stimuli/Girl.png,Stimuli/Evan_Stimuli/House.png,Stimuli/Evan_Stimuli/Zebra.png,49,1,1,2,10,1,,,,,,,,,,,,,,,,,,,,,,,,
,evan-two-stim-choice,240,864813,0.0-240.0,1,aug_19_2019,1716,,,,1320.39,TRAIN CHOICE,,,,,1,4,,,,0,10,Stimuli/Evan_Stimuli/Scissors.png,Stimuli/Evan_Stimuli/Girl.png,,,49,,,2,10,,,,,,,,0.6,0.8,1,2,Stimuli/Evan_Stimuli/Girl.png,FALSE,3,4,GAIN,,,,,,,,,
,evan-two-stim-choice,241,872403,0.0-241.0,1,aug_19_2019,1716,,,,896.625,TRAIN CHOICE,,,,,1,4,,,,10,0,Stimuli/Evan_Stimuli/Scissors.png,Stimuli/Evan_Stimuli/Girl.png,,,49,,,1,10,,,,,,,,0.4,0.8,1,1,Stimuli/Evan_Stimuli/Scissors.png,FALSE,2,4,GAIN,,,,,,,,,
,evan-two-stim-choice,242,880178,0.0-242.0,1,aug_19_2019,1716,,,,1067.425,TRAIN CHOICE,,,,,1,4,,,,-10,0,Stimuli/Evan_Stimuli/Scissors.png,Stimuli/Evan_Stimuli/Girl.png,,,50,,,2,0,,,,,,,,0.2,0.4,2,1,Stimuli/Evan_Stimuli/Girl.png,TRUE,1,2,LOSS,,,,,,,,,
,evan-run-trial,243,883346,0.0-243.0,1,aug_19_2019,1716,,,,834.555,TRAIN OBSERVE,,,1,1,2,4,FALSE,1,10,10,10,Stimuli/Evan_Stimuli/Scissors.png,Stimuli/Evan_Stimuli/Girl.png,Stimuli/Evan_Stimuli/House.png,Stimuli/Evan_Stimuli/Butterfly.png,49,1,1,1,10,4,,,,,,,,,,,,,,,,,,,,,,,,
,evan-run-trial,244,887167,0.0-244.0,1,aug_19_2019,1716,,,,1490.48,TRAIN OBSERVE,,,1,1,2,4,FALSE,1,10,10,10,Stimuli/Evan_Stimuli/Scissors.png,Stimuli/Evan_Stimuli/Girl.png,Stimuli/Evan_Stimuli/House.png,Stimuli/Evan_Stimuli/Butterfly.png,49,1,1,1,10,4,,,,,,,,,,,,,,,,,,,,,,,,
,evan-run-trial,245,890185,0.0-245.0,1,aug_19_2019,1716,,,,692.885,TRAIN OBSERVE,,,1,1,2,4,FALSE,1,10,10,10,Stimuli/Evan_Stimuli/Scissors.png,Stimuli/Evan_Stimuli/Girl.png,Stimuli/Evan_Stimuli/House.png,Stimuli/Evan_Stimuli/Butterfly.png,49,1,1,1,10,4,,,,,,,,,,,,,,,,,,,,,,,,
,evan-run-trial,246,893256,0.0-246.0,1,aug_19_2019,1716,,,,730.93,TRAIN OBSERVE,,,1,1,2,4,FALSE,0,10,10,10,Stimuli/Evan_Stimuli/Scissors.png,Stimuli/Evan_Stimuli/Girl.png,Stimuli/Evan_Stimuli/House.png,Stimuli/Evan_Stimuli/Butterfly.png,49,1,1,2,10,4,,,,,,,,,,,,,,,,,,,,,,,,
,evan-run-trial,247,896541,0.0-247.0,1,aug_19_2019,1716,,,,955.48,TRAIN OBSERVE,,,1,1,2,4,FALSE,1,10,10,10,Stimuli/Evan_Stimuli/Scissors.png,Stimuli/Evan_Stimuli/Girl.png,Stimuli/Evan_Stimuli/House.png,Stimuli/Evan_Stimuli/Butterfly.png,49,1,1,1,10,4,,,,,,,,,,,,,,,,,,,,,,,,
,evan-two-stim-choice,248,904515,0.0-248.0,1,aug_19_2019,1716,,,,1266.96,TRAIN CHOICE,,,,,1,4,,,,0,-10,Stimuli/Evan_Stimuli/Scissors.png,Stimuli/Evan_Stimuli/Girl.png,,,49,,,1,0,,,,,,,,0.6,0.8,1,1,Stimuli/Evan_Stimuli/Scissors.png,FALSE,3,4,LOSS,,,,,,,,,
,evan-two-stim-choice,249,911871,0.0-249.0,1,aug_19_2019,1716,,,,653.695,TRAIN CHOICE,,,,,1,4,,,,-10,0,Stimuli/Evan_Stimuli/Scissors.png,Stimuli/Evan_Stimuli/Girl.png,,,50,,,2,0,,,,,,,,0.4,0.6,2,2,Stimuli/Evan_Stimuli/Girl.png,FALSE,2,3,LOSS,,,,,,,,,
,evan-two-stim-choice,250,920078,0.0-250.0,1,aug_19_2019,1716,,,,1489.06,TRAIN CHOICE,,,,,1,4,,,,0,-10,Stimuli/Evan_Stimuli/Scissors.png,Stimuli/Evan_Stimuli/Girl.png,,,49,,,2,-10,,,,,,,,0.2,0.6,1,1,Stimuli/Evan_Stimuli/Girl.png,FALSE,1,3,LOSS,,,,,,,,,
,evan-run-trial,251,923014,0.0-251.0,1,aug_19_2019,1716,,,,598.83,TRAIN OBSERVE,,,1,1,2,4,FALSE,0,10,10,10,Stimuli/Evan_Stimuli/Scissors.png,Stimuli/Evan_Stimuli/Girl.png,Stimuli/Evan_Stimuli/House.png,Stimuli/Evan_Stimuli/Pepper.png,49,1,1,2,10,3,,,,,,,,,,,,,,,,,,,,,,,,
,evan-run-trial,252,925866,0.0-252.0,1,aug_19_2019,1716,,,,525.11,TRAIN OBSERVE,,,1,1,2,4,FALSE,1,10,10,10,Stimuli/Evan_Stimuli/Scissors.png,Stimuli/Evan_Stimuli/Girl.png,Stimuli/Evan_Stimuli/House.png,Stimuli/Evan_Stimuli/Pepper.png,49,1,1,1,10,3,,,,,,,,,,,,,,,,,,,,,,,,
,evan-run-trial,253,928584,0.0-253.0,1,aug_19_2019,1716,,,,394.63,TRAIN OBSERVE,,,1,1,2,4,FALSE,0,10,10,10,Stimuli/Evan_Stimuli/Scissors.png,Stimuli/Evan_Stimuli/Girl.png,Stimuli/Evan_Stimuli/House.png,Stimuli/Evan_Stimuli/Pepper.png,49,1,1,2,10,3,,,,,,,,,,,,,,,,,,,,,,,,
,evan-run-trial,254,931287,0.0-254.0,1,aug_19_2019,1716,,,,380.25,TRAIN OBSERVE,,,1,1,2,4,FALSE,1,10,10,10,Stimuli/Evan_Stimuli/Scissors.png,Stimuli/Evan_Stimuli/Girl.png,Stimuli/Evan_Stimuli/House.png,Stimuli/Evan_Stimuli/Pepper.png,49,1,1,1,10,3,,,,,,,,,,,,,,,,,,,,,,,,
,evan-run-trial,255,933990,0.0-255.0,1,aug_19_2019,1716,,,,380.86,TRAIN OBSERVE,,,1,1,2,4,FALSE,1,10,10,10,Stimuli/Evan_Stimuli/Scissors.png,Stimuli/Evan_Stimuli/Girl.png,Stimuli/Evan_Stimuli/House.png,Stimuli/Evan_Stimuli/Pepper.png,49,1,1,1,10,3,,,,,,,,,,,,,,,,,,,,,,,,
,evan-two-stim-choice,256,942363,0.0-256.0,1,aug_19_2019,1716,,,,1673.71,TRAIN CHOICE,,,,,1,4,,,,0,10,Stimuli/Evan_Stimuli/Scissors.png,Stimuli/Evan_Stimuli/Girl.png,,,50,,,1,0,,,,,,,,0.6,0.8,2,2,Stimuli/Evan_Stimuli/Scissors.png,FALSE,3,4,GAIN,,,,,,,,,
,evan-two-stim-choice,257,949970,0.0-257.0,1,aug_19_2019,1716,,,,899.615,TRAIN CHOICE,,,,,1,4,,,,0,10,Stimuli/Evan_Stimuli/Scissors.png,Stimuli/Evan_Stimuli/Girl.png,,,49,,,2,10,,,,,,,,0.2,0.4,1,2,Stimuli/Evan_Stimuli/Girl.png,FALSE,1,2,GAIN,,,,,,,,,
,evan-two-stim-choice,258,958510,0.0-258.0,1,aug_19_2019,1716,,,,1836.42,TRAIN CHOICE,,,,,1,4,,,,0,-10,Stimuli/Evan_Stimuli/Scissors.png,Stimuli/Evan_Stimuli/Girl.png,,,49,,,1,0,,,,,,,,0.2,0.8,1,2,Stimuli/Evan_Stimuli/Scissors.png,TRUE,1,4,LOSS,,,,,,,,,
,evan-run-trial,259,961380,0.0-259.0,1,aug_19_2019,1716,,,,535.39,TRAIN OBSERVE,,,1,1,2,4,FALSE,1,10,10,10,Stimuli/Evan_Stimuli/Scissors.png,Stimuli/Evan_Stimuli/Girl.png,Stimuli/Evan_Stimuli/House.png,Stimuli/Evan_Stimuli/Butterfly.png,49,1,1,1,10,4,,,,,,,,,,,,,,,,,,,,,,,,
,evan-run-trial,260,964231,0.0-260.0,1,aug_19_2019,1716,,,,512.055,TRAIN OBSERVE,,,1,1,2,4,FALSE,1,10,10,10,Stimuli/Evan_Stimuli/Scissors.png,Stimuli/Evan_Stimuli/Girl.png,Stimuli/Evan_Stimuli/House.png,Stimuli/Evan_Stimuli/Butterfly.png,49,1,1,1,10,4,,,,,,,,,,,,,,,,,,,,,,,,
,evan-run-trial,261,967017,0.0-261.0,1,aug_19_2019,1716,,,,461.39,TRAIN OBSERVE,,,1,1,2,4,FALSE,1,10,10,10,Stimuli/Evan_Stimuli/Scissors.png,Stimuli/Evan_Stimuli/Girl.png,Stimuli/Evan_Stimuli/House.png,Stimuli/Evan_Stimuli/Butterfly.png,49,1,1,1,10,4,,,,,,,,,,,,,,,,,,,,,,,,
,evan-run-trial,262,969837,0.0-262.0,1,aug_19_2019,1716,,,,491.47,TRAIN OBSERVE,,,1,1,2,4,FALSE,1,10,10,10,Stimuli/Evan_Stimuli/Scissors.png,Stimuli/Evan_Stimuli/Girl.png,Stimuli/Evan_Stimuli/House.png,Stimuli/Evan_Stimuli/Butterfly.png,49,1,1,1,10,4,,,,,,,,,,,,,,,,,,,,,,,,
,evan-run-trial,263,972605,0.0-263.0,1,aug_19_2019,1716,,,,438.74,TRAIN OBSERVE,,,1,1,2,4,FALSE,0,10,10,10,Stimuli/Evan_Stimuli/Scissors.png,Stimuli/Evan_Stimuli/Girl.png,Stimuli/Evan_Stimuli/House.png,Stimuli/Evan_Stimuli/Butterfly.png,49,1,1,2,10,4,,,,,,,,,,,,,,,,,,,,,,,,
,evan-two-stim-choice,264,982798,0.0-264.0,1,aug_19_2019,1716,,,,3489.56,TRAIN CHOICE,,,,,1,4,,,,0,10,Stimuli/Evan_Stimuli/Scissors.png,Stimuli/Evan_Stimuli/Girl.png,,,49,,,1,0,,,,,,,,0.4,0.8,1,1,Stimuli/Evan_Stimuli/Scissors.png,TRUE,2,4,GAIN,,,,,,,,,
,evan-two-stim-choice,265,991671,0.0-265.0,1,aug_19_2019,1716,,,,2177.83,TRAIN CHOICE,,,,,1,4,,,,0,-10,Stimuli/Evan_Stimuli/Scissors.png,Stimuli/Evan_Stimuli/Girl.png,,,50,,,2,-10,,,,,,,,0.6,0.8,2,2,Stimuli/Evan_Stimuli/Girl.png,TRUE,3,4,LOSS,,,,,,,,,
,evan-two-stim-choice,266,1000746,0.0-266.0,1,aug_19_2019,1716,,,,2376.265,TRAIN CHOICE,,,,,1,4,,,,0,-10,Stimuli/Evan_Stimuli/Scissors.png,Stimuli/Evan_Stimuli/Girl.png,,,49,,,2,-10,,,,,,,,0.2,0.6,1,2,Stimuli/Evan_Stimuli/Girl.png,TRUE,1,3,LOSS,,,,,,,,,
,evan-run-trial,267,1003899,0.0-267.0,1,aug_19_2019,1716,,,,826.085,TRAIN OBSERVE,,,1,1,2,4,FALSE,0,10,10,10,Stimuli/Evan_Stimuli/Scissors.png,Stimuli/Evan_Stimuli/Girl.png,Stimuli/Evan_Stimuli/House.png,Stimuli/Evan_Stimuli/Zebra.png,49,1,1,2,10,1,,,,,,,,,,,,,,,,,,,,,,,,
,evan-run-trial,268,1006718,0.0-268.0,1,aug_19_2019,1716,,,,487.44,TRAIN OBSERVE,,,1,1,2,4,FALSE,0,10,10,10,Stimuli/Evan_Stimuli/Scissors.png,Stimuli/Evan_Stimuli/Girl.png,Stimuli/Evan_Stimuli/House.png,Stimuli/Evan_Stimuli/Zebra.png,49,1,1,2,10,1,,,,,,,,,,,,,,,,,,,,,,,,
,evan-run-trial,269,1009521,0.0-269.0,1,aug_19_2019,1716,,,,469.545,TRAIN OBSERVE,,,1,1,2,4,FALSE,0,10,10,10,Stimuli/Evan_Stimuli/Scissors.png,Stimuli/Evan_Stimuli/Girl.png,Stimuli/Evan_Stimuli/House.png,Stimuli/Evan_Stimuli/Zebra.png,49,1,1,2,10,1,,,,,,,,,,,,,,,,,,,,,,,,
,evan-run-trial,270,1012405,0.0-270.0,1,aug_19_2019,1716,,,,546.6,TRAIN OBSERVE,,,1,1,2,4,FALSE,0,10,10,10,Stimuli/Evan_Stimuli/Scissors.png,Stimuli/Evan_Stimuli/Girl.png,Stimuli/Evan_Stimuli/House.png,Stimuli/Evan_Stimuli/Zebra.png,49,1,1,2,10,1,,,,,,,,,,,,,,,,,,,,,,,,
,evan-run-trial,271,1015391,0.0-271.0,1,aug_19_2019,1716,,,,647.19,TRAIN OBSERVE,,,1,1,2,4,FALSE,1,10,10,10,Stimuli/Evan_Stimuli/Scissors.png,Stimuli/Evan_Stimuli/Girl.png,Stimuli/Evan_Stimuli/House.png,Stimuli/Evan_Stimuli/Zebra.png,49,1,1,1,10,1,,,,,,,,,,,,,,,,,,,,,,,,
,evan-two-stim-choice,272,1025650,0.0-272.0,1,aug_19_2019,1716,,,,3567.68,TRAIN CHOICE,,,,,1,4,,,,10,0,Stimuli/Evan_Stimuli/Scissors.png,Stimuli/Evan_Stimuli/Girl.png,,,49,,,2,0,,,,,,,,0.2,0.4,1,2,Stimuli/Evan_Stimuli/Girl.png,TRUE,1,2,GAIN,,,,,,,,,
,evan-two-stim-choice,273,1033308,0.0-273.0,1,aug_19_2019,1716,,,,940.49,TRAIN CHOICE,,,,,1,4,,,,0,-10,Stimuli/Evan_Stimuli/Scissors.png,Stimuli/Evan_Stimuli/Girl.png,,,50,,,2,-10,,,,,,,,0.4,0.6,2,2,Stimuli/Evan_Stimuli/Girl.png,TRUE,2,3,LOSS,,,,,,,,,
,evan-two-stim-choice,274,1042849,0.0-274.0,1,aug_19_2019,1716,,,,2820.47,TRAIN CHOICE,,,,,1,4,,,,-10,0,Stimuli/Evan_Stimuli/Scissors.png,Stimuli/Evan_Stimuli/Girl.png,,,50,,,2,0,,,,,,,,0.2,0.6,2,1,Stimuli/Evan_Stimuli/Girl.png,TRUE,1,3,LOSS,,,,,,,,,
,evan-run-trial,275,1045718,0.0-275.0,1,aug_19_2019,1716,,,,531.75,TRAIN OBSERVE,,,1,1,2,4,FALSE,1,10,10,10,Stimuli/Evan_Stimuli/Scissors.png,Stimuli/Evan_Stimuli/Girl.png,Stimuli/Evan_Stimuli/House.png,Stimuli/Evan_Stimuli/Hand.png,49,1,1,1,10,2,,,,,,,,,,,,,,,,,,,,,,,,
,evan-run-trial,276,1048503,0.0-276.0,1,aug_19_2019,1716,,,,445.785,TRAIN OBSERVE,,,1,1,2,4,FALSE,0,10,10,10,Stimuli/Evan_Stimuli/Scissors.png,Stimuli/Evan_Stimuli/Girl.png,Stimuli/Evan_Stimuli/House.png,Stimuli/Evan_Stimuli/Hand.png,49,1,1,2,10,2,,,,,,,,,,,,,,,,,,,,,,,,
,evan-run-trial,277,1051271,0.0-277.0,1,aug_19_2019,1716,,,,444.68,TRAIN OBSERVE,,,1,1,2,4,FALSE,0,10,10,10,Stimuli/Evan_Stimuli/Scissors.png,Stimuli/Evan_Stimuli/Girl.png,Stimuli/Evan_Stimuli/House.png,Stimuli/Evan_Stimuli/Hand.png,49,1,1,2,10,2,,,,,,,,,,,,,,,,,,,,,,,,
,evan-run-trial,278,1054042,0.0-278.0,1,aug_19_2019,1716,,,,444.125,TRAIN OBSERVE,,,1,1,2,4,FALSE,0,10,10,10,Stimuli/Evan_Stimuli/Scissors.png,Stimuli/Evan_Stimuli/Girl.png,Stimuli/Evan_Stimuli/House.png,Stimuli/Evan_Stimuli/Hand.png,49,1,1,2,10,2,,,,,,,,,,,,,,,,,,,,,,,,
,evan-run-trial,279,1056793,0.0-279.0,1,aug_19_2019,1716,,,,425.395,TRAIN OBSERVE,,,1,1,2,4,FALSE,1,10,10,10,Stimuli/Evan_Stimuli/Scissors.png,Stimuli/Evan_Stimuli/Girl.png,Stimuli/Evan_Stimuli/House.png,Stimuli/Evan_Stimuli/Hand.png,49,1,1,1,10,2,,,,,,,,,,,,,,,,,,,,,,,,
,evan-two-stim-choice,280,1065418,0.0-280.0,1,aug_19_2019,1716,,,,1925.48,TRAIN CHOICE,,,,,1,4,,,,0,10,Stimuli/Evan_Stimuli/Scissors.png,Stimuli/Evan_Stimuli/Girl.png,,,50,,,2,10,,,,,,,,0.2,0.8,2,1,Stimuli/Evan_Stimuli/Girl.png,TRUE,1,4,GAIN,,,,,,,,,
,evan-two-stim-choice,281,1073073,0.0-281.0,1,aug_19_2019,1716,,,,948.925,TRAIN CHOICE,,,,,1,4,,,,10,0,Stimuli/Evan_Stimuli/Scissors.png,Stimuli/Evan_Stimuli/Girl.png,,,49,,,1,10,,,,,,,,0.4,0.8,1,2,Stimuli/Evan_Stimuli/Scissors.png,TRUE,2,4,GAIN,,,,,,,,,
,evan-two-stim-choice,282,1082065,0.0-282.0,1,aug_19_2019,1716,,,,2268.53,TRAIN CHOICE,,,,,1,4,,,,0,10,Stimuli/Evan_Stimuli/Scissors.png,Stimuli/Evan_Stimuli/Girl.png,,,49,,,1,0,,,,,,,,0.4,0.6,1,1,Stimuli/Evan_Stimuli/Scissors.png,TRUE,2,3,GAIN,,,,,,,,,
,evan-run-trial,283,1084952,0.0-283.0,1,aug_19_2019,1716,,,,563.9,TRAIN OBSERVE,,,1,1,2,4,FALSE,1,10,10,10,Stimuli/Evan_Stimuli/Scissors.png,Stimuli/Evan_Stimuli/Girl.png,Stimuli/Evan_Stimuli/House.png,Stimuli/Evan_Stimuli/Zebra.png,49,1,1,1,10,1,,,,,,,,,,,,,,,,,,,,,,,,
,evan-run-trial,284,1087686,0.0-284.0,1,aug_19_2019,1716,,,,396.905,TRAIN OBSERVE,,,1,1,2,4,FALSE,0,10,10,10,Stimuli/Evan_Stimuli/Scissors.png,Stimuli/Evan_Stimuli/Girl.png,Stimuli/Evan_Stimuli/House.png,Stimuli/Evan_Stimuli/Zebra.png,49,1,1,2,10,1,,,,,,,,,,,,,,,,,,,,,,,,
,evan-run-trial,285,1090456,0.0-285.0,1,aug_19_2019,1716,,,,430.165,TRAIN OBSERVE,,,1,1,2,4,FALSE,0,10,10,10,Stimuli/Evan_Stimuli/Scissors.png,Stimuli/Evan_Stimuli/Girl.png,Stimuli/Evan_Stimuli/House.png,Stimuli/Evan_Stimuli/Zebra.png,49,1,1,2,10,1,,,,,,,,,,,,,,,,,,,,,,,,
,evan-run-trial,286,1093241,0.0-286.0,1,aug_19_2019,1716,,,,460.005,TRAIN OBSERVE,,,1,1,2,4,FALSE,0,10,10,10,Stimuli/Evan_Stimuli/Scissors.png,Stimuli/Evan_Stimuli/Girl.png,Stimuli/Evan_Stimuli/House.png,Stimuli/Evan_Stimuli/Zebra.png,49,1,1,2,10,1,,,,,,,,,,,,,,,,,,,,,,,,
,evan-run-trial,287,1095993,0.0-287.0,1,aug_19_2019,1716,,,,426.925,TRAIN OBSERVE,,,1,1,2,4,FALSE,0,10,10,10,Stimuli/Evan_Stimuli/Scissors.png,Stimuli/Evan_Stimuli/Girl.png,Stimuli/Evan_Stimuli/House.png,Stimuli/Evan_Stimuli/Zebra.png,49,1,1,2,10,1,,,,,,,,,,,,,,,,,,,,,,,,
,evan-two-stim-choice,288,1103967,0.0-288.0,1,aug_19_2019,1716,,,,1253.605,TRAIN CHOICE,,,,,1,4,,,,-10,0,Stimuli/Evan_Stimuli/Scissors.png,Stimuli/Evan_Stimuli/Girl.png,,,50,,,2,0,,,,,,,,0.2,0.6,2,1,Stimuli/Evan_Stimuli/Girl.png,TRUE,1,3,LOSS,,,,,,,,,
,evan-two-stim-choice,289,1113309,0.0-289.0,1,aug_19_2019,1716,,,,2622.795,TRAIN CHOICE,,,,,1,4,,,,-10,0,Stimuli/Evan_Stimuli/Scissors.png,Stimuli/Evan_Stimuli/Girl.png,,,49,,,1,-10,,,,,,,,0.6,0.8,1,1,Stimuli/Evan_Stimuli/Scissors.png,TRUE,3,4,LOSS,,,,,,,,,
,evan-two-stim-choice,290,1121016,0.0-290.0,1,aug_19_2019,1716,,,,1009.315,TRAIN CHOICE,,,,,1,4,,,,10,0,Stimuli/Evan_Stimuli/Scissors.png,Stimuli/Evan_Stimuli/Girl.png,,,49,,,1,10,,,,,,,,0.2,0.6,1,2,Stimuli/Evan_Stimuli/Scissors.png,TRUE,1,3,GAIN,,,,,,,,,
,evan-run-trial,291,1123985,0.0-291.0,1,aug_19_2019,1716,,,,635.285,TRAIN OBSERVE,,,1,1,2,4,FALSE,1,10,10,10,Stimuli/Evan_Stimuli/Scissors.png,Stimuli/Evan_Stimuli/Girl.png,Stimuli/Evan_Stimuli/House.png,Stimuli/Evan_Stimuli/Hand.png,49,1,1,1,10,2,,,,,,,,,,,,,,,,,,,,,,,,
,evan-run-trial,292,1126703,0.0-292.0,1,aug_19_2019,1716,,,,386.035,TRAIN OBSERVE,,,1,1,2,4,FALSE,1,10,10,10,Stimuli/Evan_Stimuli/Scissors.png,Stimuli/Evan_Stimuli/Girl.png,Stimuli/Evan_Stimuli/House.png,Stimuli/Evan_Stimuli/Hand.png,49,1,1,1,10,2,,,,,,,,,,,,,,,,,,,,,,,,
,evan-run-trial,293,1129373,0.0-293.0,1,aug_19_2019,1716,,,,340.535,TRAIN OBSERVE,,,1,1,2,4,FALSE,0,10,10,10,Stimuli/Evan_Stimuli/Scissors.png,Stimuli/Evan_Stimuli/Girl.png,Stimuli/Evan_Stimuli/House.png,Stimuli/Evan_Stimuli/Hand.png,49,1,1,2,10,2,,,,,,,,,,,,,,,,,,,,,,,,
,evan-run-trial,294,1132008,0.0-294.0,1,aug_19_2019,1716,,,,311.195,TRAIN OBSERVE,,,1,1,2,4,FALSE,0,10,10,10,Stimuli/Evan_Stimuli/Scissors.png,Stimuli/Evan_Stimuli/Girl.png,Stimuli/Evan_Stimuli/House.png,Stimuli/Evan_Stimuli/Hand.png,49,1,1,2,10,2,,,,,,,,,,,,,,,,,,,,,,,,
,evan-run-trial,295,1134760,0.0-295.0,1,aug_19_2019,1716,,,,427.495,TRAIN OBSERVE,,,1,1,2,4,FALSE,0,10,10,10,Stimuli/Evan_Stimuli/Scissors.png,Stimuli/Evan_Stimuli/Girl.png,Stimuli/Evan_Stimuli/House.png,Stimuli/Evan_Stimuli/Hand.png,49,1,1,2,10,2,,,,,,,,,,,,,,,,,,,,,,,,
,evan-two-stim-choice,296,1143500,0.0-296.0,1,aug_19_2019,1716,,,,2039.5,TRAIN CHOICE,,,,,1,4,,,,0,-10,Stimuli/Evan_Stimuli/Scissors.png,Stimuli/Evan_Stimuli/Girl.png,,,50,,,2,-10,,,,,,,,0.2,0.4,2,2,Stimuli/Evan_Stimuli/Girl.png,TRUE,1,2,LOSS,,,,,,,,,
,evan-two-stim-choice,297,1155477,0.0-297.0,1,aug_19_2019,1716,,,,5266.02,TRAIN CHOICE,,,,,1,4,,,,0,10,Stimuli/Evan_Stimuli/Scissors.png,Stimuli/Evan_Stimuli/Girl.png,,,50,,,2,10,,,,,,,,0.2,0.8,2,1,Stimuli/Evan_Stimuli/Girl.png,TRUE,1,4,GAIN,,,,,,,,,
,evan-two-stim-choice,298,1162884,0.0-298.0,1,aug_19_2019,1716,,,,712.11,TRAIN CHOICE,,,,,1,4,,,,0,-10,Stimuli/Evan_Stimuli/Scissors.png,Stimuli/Evan_Stimuli/Girl.png,,,49,,,2,-10,,,,,,,,0.4,0.6,1,2,Stimuli/Evan_Stimuli/Girl.png,TRUE,2,3,LOSS,,,,,,,,,
,evan-run-trial,299,1165737,0.0-299.0,1,aug_19_2019,1716,,,,529.035,TRAIN OBSERVE,,,1,1,2,4,FALSE,0,10,10,10,Stimuli/Evan_Stimuli/Scissors.png,Stimuli/Evan_Stimuli/Girl.png,Stimuli/Evan_Stimuli/House.png,Stimuli/Evan_Stimuli/Butterfly.png,49,1,1,2,10,4,,,,,,,,,,,,,,,,,,,,,,,,
,evan-run-trial,300,1168456,0.0-300.0,1,aug_19_2019,1716,,,,394.78,TRAIN OBSERVE,,,1,1,2,4,FALSE,1,10,10,10,Stimuli/Evan_Stimuli/Scissors.png,Stimuli/Evan_Stimuli/Girl.png,Stimuli/Evan_Stimuli/House.png,Stimuli/Evan_Stimuli/Butterfly.png,49,1,1,1,10,4,,,,,,,,,,,,,,,,,,,,,,,,
,evan-run-trial,301,1171174,0.0-301.0,1,aug_19_2019,1716,,,,380.18,TRAIN OBSERVE,,,1,1,2,4,FALSE,1,10,10,10,Stimuli/Evan_Stimuli/Scissors.png,Stimuli/Evan_Stimuli/Girl.png,Stimuli/Evan_Stimuli/House.png,Stimuli/Evan_Stimuli/Butterfly.png,49,1,1,1,10,4,,,,,,,,,,,,,,,,,,,,,,,,
,evan-run-trial,302,1173876,0.0-302.0,1,aug_19_2019,1716,,,,366.635,TRAIN OBSERVE,,,1,1,2,4,FALSE,1,10,10,10,Stimuli/Evan_Stimuli/Scissors.png,Stimuli/Evan_Stimuli/Girl.png,Stimuli/Evan_Stimuli/House.png,Stimuli/Evan_Stimuli/Butterfly.png,49,1,1,1,10,4,,,,,,,,,,,,,,,,,,,,,,,,
,evan-run-trial,303,1176596,0.0-303.0,1,aug_19_2019,1716,,,,384.115,TRAIN OBSERVE,,,1,1,2,4,FALSE,1,10,10,10,Stimuli/Evan_Stimuli/Scissors.png,Stimuli/Evan_Stimuli/Girl.png,Stimuli/Evan_Stimuli/House.png,Stimuli/Evan_Stimuli/Butterfly.png,49,1,1,1,10,4,,,,,,,,,,,,,,,,,,,,,,,,
,evan-two-stim-choice,304,1184870,0.0-304.0,1,aug_19_2019,1716,,,,1579.495,TRAIN CHOICE,,,,,1,4,,,,-10,0,Stimuli/Evan_Stimuli/Scissors.png,Stimuli/Evan_Stimuli/Girl.png,,,50,,,2,0,,,,,,,,0.4,0.6,2,1,Stimuli/Evan_Stimuli/Girl.png,TRUE,2,3,LOSS,,,,,,,,,
,evan-two-stim-choice,305,1192725,0.0-305.0,1,aug_19_2019,1716,,,,1160.795,TRAIN CHOICE,,,,,1,4,,,,0,-10,Stimuli/Evan_Stimuli/Scissors.png,Stimuli/Evan_Stimuli/Girl.png,,,49,,,2,-10,,,,,,,,0.2,0.8,1,1,Stimuli/Evan_Stimuli/Girl.png,FALSE,1,4,LOSS,,,,,,,,,
,evan-two-stim-choice,306,1201434,0.0-306.0,1,aug_19_2019,1716,,,,2005.875,TRAIN CHOICE,,,,,1,4,,,,-10,0,Stimuli/Evan_Stimuli/Scissors.png,Stimuli/Evan_Stimuli/Girl.png,,,50,,,2,0,,,,,,,,0.4,0.8,2,1,Stimuli/Evan_Stimuli/Girl.png,TRUE,2,4,LOSS,,,,,,,,,
,evan-run-trial,307,1204253,0.0-307.0,1,aug_19_2019,1716,,,,490.495,TRAIN OBSERVE,,,1,1,2,4,FALSE,1,10,10,10,Stimuli/Evan_Stimuli/Scissors.png,Stimuli/Evan_Stimuli/Girl.png,Stimuli/Evan_Stimuli/House.png,Stimuli/Evan_Stimuli/Pepper.png,49,1,1,1,10,3,,,,,,,,,,,,,,,,,,,,,,,,
,evan-run-trial,308,1206972,0.0-308.0,1,aug_19_2019,1716,,,,390.49,TRAIN OBSERVE,,,1,1,2,4,FALSE,0,10,10,10,Stimuli/Evan_Stimuli/Scissors.png,Stimuli/Evan_Stimuli/Girl.png,Stimuli/Evan_Stimuli/House.png,Stimuli/Evan_Stimuli/Pepper.png,49,1,1,2,10,3,,,,,,,,,,,,,,,,,,,,,,,,
,evan-run-trial,309,1209723,0.0-309.0,1,aug_19_2019,1716,,,,422.52,TRAIN OBSERVE,,,1,1,2,4,FALSE,0,10,10,10,Stimuli/Evan_Stimuli/Scissors.png,Stimuli/Evan_Stimuli/Girl.png,Stimuli/Evan_Stimuli/House.png,Stimuli/Evan_Stimuli/Pepper.png,49,1,1,2,10,3,,,,,,,,,,,,,,,,,,,,,,,,
,evan-run-trial,310,1212459,0.0-310.0,1,aug_19_2019,1716,,,,409.38,TRAIN OBSERVE,,,1,1,2,4,FALSE,1,10,10,10,Stimuli/Evan_Stimuli/Scissors.png,Stimuli/Evan_Stimuli/Girl.png,Stimuli/Evan_Stimuli/House.png,Stimuli/Evan_Stimuli/Pepper.png,49,1,1,1,10,3,,,,,,,,,,,,,,,,,,,,,,,,
,evan-run-trial,311,1215195,0.0-311.0,1,aug_19_2019,1716,,,,408.62,TRAIN OBSERVE,,,1,1,2,4,FALSE,1,10,10,10,Stimuli/Evan_Stimuli/Scissors.png,Stimuli/Evan_Stimuli/Girl.png,Stimuli/Evan_Stimuli/House.png,Stimuli/Evan_Stimuli/Pepper.png,49,1,1,1,10,3,,,,,,,,,,,,,,,,,,,,,,,,
,evan-two-stim-choice,312,1223253,0.0-312.0,1,aug_19_2019,1716,,,,1347.9,TRAIN CHOICE,,,,,1,4,,,,-10,0,Stimuli/Evan_Stimuli/Scissors.png,Stimuli/Evan_Stimuli/Girl.png,,,50,,,2,0,,,,,,,,0.2,0.4,2,2,Stimuli/Evan_Stimuli/Girl.png,FALSE,1,2,LOSS,,,,,,,,,
,evan-two-stim-choice,313,1231026,0.0-313.0,1,aug_19_2019,1716,,,,1050.815,TRAIN CHOICE,,,,,1,4,,,,10,0,Stimuli/Evan_Stimuli/Scissors.png,Stimuli/Evan_Stimuli/Girl.png,,,49,,,1,10,,,,,,,,0.4,0.8,1,2,Stimuli/Evan_Stimuli/Scissors.png,TRUE,2,4,GAIN,,,,,,,,,
,evan-two-stim-choice,314,1238915,0.0-314.0,1,aug_19_2019,1716,,,,1197.365,TRAIN CHOICE,,,,,1,4,,,,0,-10,Stimuli/Evan_Stimuli/Scissors.png,Stimuli/Evan_Stimuli/Girl.png,,,50,,,1,0,,,,,,,,0.6,0.8,2,2,Stimuli/Evan_Stimuli/Scissors.png,TRUE,3,4,LOSS,,,,,,,,,
,evan-two-stim-choice,315,1246705,0.0-315.0,1,aug_19_2019,1716,,,,1082.905,TRAIN CHOICE,,,,,1,4,,,,10,0,Stimuli/Evan_Stimuli/Scissors.png,Stimuli/Evan_Stimuli/Girl.png,,,50,,,1,10,,,,,,,,0.2,0.6,2,2,Stimuli/Evan_Stimuli/Scissors.png,TRUE,1,3,GAIN,,,,,,,,,
,evan-two-stim-choice,316,1254596,0.0-316.0,1,aug_19_2019,1716,,,,1182.005,TRAIN CHOICE,,,,,1,4,,,,10,0,Stimuli/Evan_Stimuli/Scissors.png,Stimuli/Evan_Stimuli/Girl.png,,,50,,,1,10,,,,,,,,0.2,0.8,2,2,Stimuli/Evan_Stimuli/Scissors.png,TRUE,1,4,GAIN,,,,,,,,,
,evan-two-stim-choice,317,1266890,0.0-317.0,1,aug_19_2019,1716,,,,5579.175,TRAIN CHOICE,,,,,1,4,,,,10,0,Stimuli/Evan_Stimuli/Scissors.png,Stimuli/Evan_Stimuli/Girl.png,,,49,,,1,10,,,,,,,,0.6,0.8,1,1,Stimuli/Evan_Stimuli/Scissors.png,FALSE,3,4,GAIN,,,,,,,,,
,evan-two-stim-choice,318,1277015,0.0-318.0,1,aug_19_2019,1716,,,,3429.2,TRAIN CHOICE,,,,,1,4,,,,0,10,Stimuli/Evan_Stimuli/Scissors.png,Stimuli/Evan_Stimuli/Girl.png,,,50,,,1,0,,,,,,,,0.2,0.4,2,1,Stimuli/Evan_Stimuli/Scissors.png,TRUE,1,2,GAIN,,,,,,,,,
,evan-two-stim-choice,319,1284705,0.0-319.0,1,aug_19_2019,1716,,,,985.03,TRAIN CHOICE,,,,,1,4,,,,0,-10,Stimuli/Evan_Stimuli/Scissors.png,Stimuli/Evan_Stimuli/Girl.png,,,50,,,2,-10,,,,,,,,0.2,0.4,2,2,Stimuli/Evan_Stimuli/Girl.png,TRUE,1,2,LOSS,,,,,,,,,
,evan-two-stim-choice,320,1293095,0.0-320.0,1,aug_19_2019,1716,,,,1695.245,TRAIN CHOICE,,,,,1,4,,,,-10,0,Stimuli/Evan_Stimuli/Scissors.png,Stimuli/Evan_Stimuli/Girl.png,,,49,,,2,0,,,,,,,,0.2,0.8,1,1,Stimuli/Evan_Stimuli/Girl.png,TRUE,1,4,LOSS,,,,,,,,,
,evan-two-stim-choice,321,1301369,0.0-321.0,1,aug_19_2019,1716,,,,1576.16,TRAIN CHOICE,,,,,1,4,,,,0,10,Stimuli/Evan_Stimuli/Scissors.png,Stimuli/Evan_Stimuli/Girl.png,,,49,,,1,0,,,,,,,,0.2,0.6,1,2,Stimuli/Evan_Stimuli/Scissors.png,FALSE,1,3,GAIN,,,,,,,,,
,evan-two-stim-choice,322,1310227,0.0-322.0,1,aug_19_2019,1716,,,,2166.385,TRAIN CHOICE,,,,,1,4,,,,0,-10,Stimuli/Evan_Stimuli/Scissors.png,Stimuli/Evan_Stimuli/Girl.png,,,50,,,1,0,,,,,,,,0.4,0.8,2,2,Stimuli/Evan_Stimuli/Scissors.png,TRUE,2,4,LOSS,,,,,,,,,
,evan-two-stim-choice,323,1318016,0.0-323.0,1,aug_19_2019,1716,,,,1069.165,TRAIN CHOICE,,,,,1,4,,,,0,10,Stimuli/Evan_Stimuli/Scissors.png,Stimuli/Evan_Stimuli/Girl.png,,,49,,,2,10,,,,,,,,0.4,0.8,1,1,Stimuli/Evan_Stimuli/Girl.png,TRUE,2,4,GAIN,,,,,,,,,
,evan-two-stim-choice,324,1325606,0.0-324.0,1,aug_19_2019,1716,,,,894.73,TRAIN CHOICE,,,,,1,4,,,,0,-10,Stimuli/Evan_Stimuli/Scissors.png,Stimuli/Evan_Stimuli/Girl.png,,,50,,,1,0,,,,,,,,0.4,0.6,2,2,Stimuli/Evan_Stimuli/Scissors.png,TRUE,2,3,LOSS,,,,,,,,,
,evan-two-stim-choice,325,1333897,0.0-325.0,1,aug_19_2019,1716,,,,1608.05,TRAIN CHOICE,,,,,1,4,,,,0,10,Stimuli/Evan_Stimuli/Scissors.png,Stimuli/Evan_Stimuli/Girl.png,,,49,,,1,0,,,,,,,,0.4,0.6,1,1,Stimuli/Evan_Stimuli/Scissors.png,TRUE,2,3,GAIN,,,,,,,,,
,evan-two-stim-choice,326,1344072,0.0-326.0,1,aug_19_2019,1716,,,,3479.425,TRAIN CHOICE,,,,,1,4,,,,0,10,Stimuli/Evan_Stimuli/Scissors.png,Stimuli/Evan_Stimuli/Girl.png,,,50,,,1,0,,,,,,,,0.6,0.8,2,1,Stimuli/Evan_Stimuli/Scissors.png,TRUE,3,4,GAIN,,,,,,,,,
,html-button-response,327,1344077,0.0-327.0,1,aug_19_2019,1716,,,,,,,,,,,,,,,,,,,,,,,,,,,,,,,,,,,,,,,,,,,,,95,3,0,0,,
,html-button-response,327,1628814,0.0-327.0,1,aug_19_2019,1716,,,,284733,,,,,,,,,,,,,,,,,,,,,,,,,,,,,,,,,,,,,,,,,,,,,"You have finished the task. Thank you for your contribution to science! 		 			For the attention checks in the first task, you got 95 percent correct. 					On four randomly selected choice games from the first task the average number of points you collected was 3. 					For the attention checks in the second task, you got 0 percent correct. On four randomly selected games from the second task, 					the average number of points you collected was 0. 					 Your bonus will be based on these results. You should receive your payment and bonus shortly.",0
